{
    "meta": {
        "profile": [
            "https://www.netzwerk-universitaetsmedizin.de/fhir/StructureDefinition/gecco-bundle"
        ]
    },
    "entry": [
        {
            "request": {
                "method": "PUT",
                "url": "Patient/cbaf3669-a8aa-462f-a2a5-8d45c4ccb250"
            },
            "resource": {
                "id": "cbaf3669-a8aa-462f-a2a5-8d45c4ccb250",
                "meta": {
                    "profile": [
                        "https://www.netzwerk-universitaetsmedizin.de/fhir/StructureDefinition/Patient"
                    ]
                },
                "extension": [
                    {
                        "url": "https://www.netzwerk-universitaetsmedizin.de/fhir/StructureDefinition/ethnic-group",
                        "valueCoding": {
                            "code": "315280000",
                            "display": "Asian - ethnic group (ethnic group)",
                            "system": "http://snomed.info/sct"
                        }
                    },
                    {
                        "extension": [
                            {
                                "url": "dateTimeOfDocumentation",
                                "valueDateTime": "2020-11-17T10:51:04+01:00"
                            },
                            {
                                "url": "age",
                                "valueAge": {
                                    "code": "a",
                                    "system": "http://unitsofmeasure.org",
                                    "unit": "years",
                                    "value": 30
                                }
                            }
                        ],
                        "url": "https://www.netzwerk-universitaetsmedizin.de/fhir/StructureDefinition/age"
                    }
                ],
                "birthDate": "1989-12-26",
                "identifier": [
                    {
                        "assigner": {
                            "reference": "Organization/Charit\u00e9"
                        },
                        "system": "https://www.charite.de/fhir/CodeSystem/medical-record-numbers",
                        "type": {
                            "coding": [
                                {
                                    "code": "MR",
                                    "system": "http://terminology.hl7.org/CodeSystem/v2-0203"
                                }
                            ]
                        },
                        "value": "36708330"
                    }
                ],
                "resourceType": "Patient"
            }
        },
        {
            "request": {
                "method": "PUT",
                "url": "Observation/944fbeaf-e427-431e-b8b9-7fa670c39009"
            },
            "resource": {
                "id": "944fbeaf-e427-431e-b8b9-7fa670c39009",
                "meta": {
                    "profile": [
                        "https://www.netzwerk-universitaetsmedizin.de/fhir/StructureDefinition/sex-assigned-at-birth"
                    ]
                },
                "category": [
                    {
                        "coding": [
                            {
                                "code": "social-history",
                                "display": "Social History",
                                "system": "http://terminology.hl7.org/CodeSystem/observation-category"
                            }
                        ]
                    }
                ],
                "code": {
                    "coding": [
                        {
                            "code": "76689-9",
                            "display": "Sex assigned at birth",
                            "system": "http://loinc.org"
                        }
                    ]
                },
                "effectiveDateTime": "2020-11-17T10:51:04+01:00",
                "status": "final",
                "subject": {
                    "reference": "Patient/cbaf3669-a8aa-462f-a2a5-8d45c4ccb250"
                },
                "valueCodeableConcept": {
                    "coding": [
                        {
                            "code": "female",
                            "display": "Female",
                            "system": "http://hl7.org/fhir/administrative-gender"
                        }
                    ],
                    "text": "Female"
                },
                "resourceType": "Observation"
            }
        },
        {
            "request": {
                "method": "PUT",
                "url": "Observation/ea2b09bc-6711-42b0-901c-d2ea9093e7b1"
            },
            "resource": {
                "id": "ea2b09bc-6711-42b0-901c-d2ea9093e7b1",
                "meta": {
                    "profile": [
                        "https://www.netzwerk-universitaetsmedizin.de/fhir/StructureDefinition/pregnancy-status"
                    ]
                },
                "category": [
                    {
                        "coding": [
                            {
                                "code": "social-history",
                                "system": "http://terminology.hl7.org/CodeSystem/observation-category"
                            }
                        ]
                    }
                ],
                "code": {
                    "coding": [
                        {
                            "code": "82810-3",
                            "display": "Pregnancy status",
                            "system": "http://loinc.org"
                        }
                    ],
                    "text": "Pregnancy status"
                },
                "effectiveDateTime": "2020-11-17T10:51:04+01:00",
                "identifier": [
                    {
                        "assigner": {
                            "reference": "Organization/Charit\u00e9"
                        },
                        "system": "https://www.charite.de/fhir/CodeSystem/observation-identifiers",
                        "type": {
                            "coding": [
                                {
                                    "code": "OBI",
                                    "system": "http://terminology.hl7.org/CodeSystem/v2-0203"
                                }
                            ]
                        },
                        "value": "82810-3_PregnancyStatus"
                    }
                ],
                "status": "final",
                "subject": {
                    "reference": "Patient/cbaf3669-a8aa-462f-a2a5-8d45c4ccb250"
                },
                "valueCodeableConcept": {
                    "coding": [
                        {
                            "code": "LA15173-0",
                            "display": "Pregnant",
                            "system": "http://loinc.org"
                        },
                        {
                            "code": "77386006",
                            "display": "Pregnant (finding)",
                            "system": "http://snomed.info/sct"
                        }
                    ]
                },
                "resourceType": "Observation"
            }
        },
        {
            "request": {
                "method": "PUT",
                "url": "Observation/9d10c523-0a6b-41da-a988-34d7ab8af0bc"
            },
            "resource": {
                "id": "9d10c523-0a6b-41da-a988-34d7ab8af0bc",
                "meta": {
                    "profile": [
                        "https://www.netzwerk-universitaetsmedizin.de/fhir/StructureDefinition/frailty-score"
                    ]
                },
                "category": [
                    {
                        "coding": [
                            {
                                "code": "survey",
                                "system": "http://terminology.hl7.org/CodeSystem/observation-category"
                            }
                        ]
                    }
                ],
                "code": {
                    "coding": [
                        {
                            "code": "763264000",
                            "display": "Canadian Study of Health and Aging Clinical Frailty Scale score",
                            "system": "http://snomed.info/sct"
                        }
                    ],
                    "text": "Frailty Scale Score"
                },
                "effectiveDateTime": "2020-11-17T10:51:04+01:00",
                "identifier": [
                    {
                        "assigner": {
                            "reference": "Organization/Charit\u00e9"
                        },
                        "system": "https://www.charite.de/fhir/CodeSystem/observation-identifiers",
                        "type": {
                            "coding": [
                                {
                                    "code": "OBI",
                                    "system": "http://terminology.hl7.org/CodeSystem/v2-0203"
                                }
                            ]
                        },
                        "value": "763264000_FrailtyScaleScore"
                    }
                ],
                "method": {
                    "coding": [
                        {
                            "code": "445414007",
                            "display": "Canadian Study of Health and Aging clinical frailty scale",
                            "system": "http://snomed.info/sct"
                        }
                    ]
                },
                "status": "final",
                "subject": {
                    "reference": "Patient/cbaf3669-a8aa-462f-a2a5-8d45c4ccb250"
                },
                "valueCodeableConcept": {
                    "coding": [
                        {
                            "code": "3",
                            "display": "Managing Well",
                            "system": "https://www.netzwerk-universitaetsmedizin.de/fhir/CodeSystem/frailty-score"
                        }
                    ]
                },
                "resourceType": "Observation"
            }
        },
        {
            "request": {
                "method": "PUT",
                "url": "Observation/eb8584c1-b373-4e22-8aad-8fbe2ca23f25"
            },
            "resource": {
                "id": "eb8584c1-b373-4e22-8aad-8fbe2ca23f25",
                "meta": {
                    "profile": [
                        "https://www.netzwerk-universitaetsmedizin.de/fhir/StructureDefinition/body-weight"
                    ]
                },
                "category": [
                    {
                        "coding": [
                            {
                                "code": "vital-signs",
                                "system": "http://terminology.hl7.org/CodeSystem/observation-category"
                            }
                        ]
                    }
                ],
                "code": {
                    "coding": [
                        {
                            "code": "29463-7",
                            "display": "Body weight",
                            "system": "http://loinc.org"
                        },
                        {
                            "code": "27113001",
                            "display": "Body weight (observable entity)",
                            "system": "http://snomed.info/sct"
                        }
                    ],
                    "text": "Body weight"
                },
                "effectiveDateTime": "2020-11-17T10:51:04+01:00",
                "identifier": [
                    {
                        "assigner": {
                            "reference": "Organization/Charit\u00e9"
                        },
                        "system": "https://www.charite.de/fhir/CodeSystem/observation-identifiers",
                        "type": {
                            "coding": [
                                {
                                    "code": "OBI",
                                    "system": "http://terminology.hl7.org/CodeSystem/v2-0203"
                                }
                            ]
                        },
                        "value": "29463-7_BodyWeight"
                    }
                ],
                "status": "final",
                "subject": {
                    "reference": "Patient/cbaf3669-a8aa-462f-a2a5-8d45c4ccb250"
                },
                "valueQuantity": {
                    "code": "kg",
                    "system": "http://unitsofmeasure.org",
                    "unit": "kilogram",
                    "value": 73
                },
                "resourceType": "Observation"
            }
        },
        {
            "request": {
                "method": "PUT",
                "url": "Observation/7fdba674-cea8-4c8d-9cd2-e857d0ee6109"
            },
            "resource": {
                "id": "7fdba674-cea8-4c8d-9cd2-e857d0ee6109",
                "meta": {
                    "profile": [
                        "https://www.netzwerk-universitaetsmedizin.de/fhir/StructureDefinition/body-height"
                    ]
                },
                "category": [
                    {
                        "coding": [
                            {
                                "code": "vital-signs",
                                "system": "http://terminology.hl7.org/CodeSystem/observation-category"
                            }
                        ]
                    }
                ],
                "code": {
                    "coding": [
                        {
                            "code": "8302-2",
                            "display": "Body height",
                            "system": "http://loinc.org"
                        },
                        {
                            "code": "50373000",
                            "display": "Body height measure (observable entity)",
                            "system": "http://snomed.info/sct"
                        }
                    ],
                    "text": "Body height"
                },
                "effectiveDateTime": "2020-11-17T10:51:04+01:00",
                "identifier": [
                    {
                        "assigner": {
                            "reference": "Organization/Charit\u00e9"
                        },
                        "system": "https://www.charite.de/fhir/CodeSystem/observation-identifiers",
                        "type": {
                            "coding": [
                                {
                                    "code": "OBI",
                                    "system": "http://terminology.hl7.org/CodeSystem/v2-0203"
                                }
                            ]
                        },
                        "value": "8302-2_BodyHeight"
                    }
                ],
                "status": "final",
                "subject": {
                    "reference": "Patient/cbaf3669-a8aa-462f-a2a5-8d45c4ccb250"
                },
                "valueQuantity": {
                    "code": "cm",
                    "system": "http://unitsofmeasure.org",
                    "unit": "centimeter",
                    "value": 188
                },
                "resourceType": "Observation"
            }
        },
        {
            "request": {
                "method": "POST",
                "url": "Condition"
            },
            "resource": {
                "id": "72deaeae-3466-44d9-a309-5fa942be9349",
                "meta": {
                    "profile": [
                        "https://www.netzwerk-universitaetsmedizin.de/fhir/StructureDefinition/chronic-lung-diseases"
                    ]
                },
                "category": [
                    {
                        "coding": [
                            {
                                "code": "418112009",
                                "display": "Pulmonary medicine",
                                "system": "http://snomed.info/sct"
                            }
                        ]
                    }
                ],
                "code": {
                    "coding": [
                        {
                            "code": "413839001",
                            "display": "Chronic lung disease",
                            "system": "http://snomed.info/sct"
                        }
                    ]
                },
                "recordedDate": "2020-11-17T10:51:04+01:00",
                "subject": {
                    "reference": "Patient/cbaf3669-a8aa-462f-a2a5-8d45c4ccb250"
                },
                "verificationStatus": {
                    "coding": [
                        {
                            "code": "refuted",
                            "display": "Refuted",
                            "system": "http://terminology.hl7.org/CodeSystem/condition-ver-status"
                        },
                        {
                            "code": "410594000",
                            "display": "Definitely NOT present (qualifier value)",
                            "system": "http://snomed.info/sct"
                        }
                    ]
                },
                "resourceType": "Condition"
            }
        },
        {
            "request": {
                "method": "POST",
                "url": "Condition"
            },
            "resource": {
                "id": "ef212856-6b35-458a-bc6b-3a2f8fc603a6",
                "meta": {
                    "profile": [
                        "https://www.netzwerk-universitaetsmedizin.de/fhir/StructureDefinition/cardiovascular-diseases"
                    ]
                },
                "extension": [
                    {
                        "url": "https://www.netzwerk-universitaetsmedizin.de/fhir/StructureDefinition/uncertainty-of-presence",
                        "valueCodeableConcept": {
                            "coding": [
                                {
                                    "code": "261665006",
                                    "display": "Unknown (qualifier value)",
                                    "system": "http://snomed.info/sct"
                                }
                            ],
                            "text": "Presence of condition is unknown."
                        }
                    }
                ],
                "category": [
                    {
                        "coding": [
                            {
                                "code": "722414000",
                                "display": "Vascular medicine",
                                "system": "http://snomed.info/sct"
                            }
                        ]
                    }
                ],
                "code": {
                    "coding": [
                        {
                            "code": "49601007",
                            "display": "Cardiovascular disease",
                            "system": "http://snomed.info/sct"
                        }
                    ]
                },
                "recordedDate": "2020-11-17T10:51:04+01:00",
                "subject": {
                    "reference": "Patient/cbaf3669-a8aa-462f-a2a5-8d45c4ccb250"
                },
                "resourceType": "Condition"
            }
        },
        {
            "request": {
                "method": "POST",
                "url": "Condition"
            },
            "resource": {
                "id": "4ae86eba-d21b-478b-b707-150b19556f77",
                "meta": {
                    "profile": [
                        "https://www.netzwerk-universitaetsmedizin.de/fhir/StructureDefinition/chronic-liver-diseases"
                    ]
                },
                "extension": [
                    {
                        "url": "https://www.netzwerk-universitaetsmedizin.de/fhir/StructureDefinition/uncertainty-of-presence",
                        "valueCodeableConcept": {
                            "coding": [
                                {
                                    "code": "261665006",
                                    "display": "Unknown (qualifier value)",
                                    "system": "http://snomed.info/sct"
                                }
                            ],
                            "text": "Presence of condition is unknown."
                        }
                    }
                ],
                "category": [
                    {
                        "coding": [
                            {
                                "code": "408472002",
                                "display": "Hepatology",
                                "system": "http://snomed.info/sct"
                            }
                        ]
                    }
                ],
                "code": {
                    "coding": [
                        {
                            "code": "328383001",
                            "display": "Chronic liver disease",
                            "system": "http://snomed.info/sct"
                        }
                    ]
                },
                "recordedDate": "2020-11-17T10:51:04+01:00",
                "subject": {
                    "reference": "Patient/cbaf3669-a8aa-462f-a2a5-8d45c4ccb250"
                },
                "resourceType": "Condition"
            }
        },
        {
            "request": {
                "method": "POST",
                "url": "Condition"
            },
            "resource": {
                "id": "1b3657b1-f673-453b-8004-55639ed6fa3c",
                "meta": {
                    "profile": [
                        "https://www.netzwerk-universitaetsmedizin.de/fhir/StructureDefinition/rheumatological-immunological-diseases"
                    ]
                },
                "category": [
                    {
                        "coding": [
                            {
                                "code": "394810000",
                                "display": "Rheumatology",
                                "system": "http://snomed.info/sct"
                            },
                            {
                                "code": "408480009",
                                "display": "Clinical immunology",
                                "system": "http://snomed.info/sct"
                            }
                        ]
                    }
                ],
                "code": {
                    "coding": [
                        {
                            "code": "396332003",
                            "display": "Rheumatism",
                            "system": "http://snomed.info/sct"
                        }
                    ]
                },
                "recordedDate": "2020-11-17T10:51:04+01:00",
                "subject": {
                    "reference": "Patient/cbaf3669-a8aa-462f-a2a5-8d45c4ccb250"
                },
                "verificationStatus": {
                    "coding": [
                        {
                            "code": "refuted",
                            "display": "Refuted",
                            "system": "http://terminology.hl7.org/CodeSystem/condition-ver-status"
                        },
                        {
                            "code": "410594000",
                            "display": "Definitely NOT present (qualifier value)",
                            "system": "http://snomed.info/sct"
                        }
                    ]
                },
                "resourceType": "Condition"
            }
        },
        {
            "request": {
                "method": "POST",
                "url": "Condition"
            },
            "resource": {
                "id": "d229b4ca-f820-4af1-b96a-8bf49f8f0317",
                "meta": {
                    "profile": [
                        "https://www.netzwerk-universitaetsmedizin.de/fhir/StructureDefinition/human-immunodeficiency-virus-infection"
                    ]
                },
                "category": [
                    {
                        "coding": [
                            {
                                "code": "394807007",
                                "display": "Infectious diseases (specialty)",
                                "system": "http://snomed.info/sct"
                            }
                        ]
                    }
                ],
                "code": {
                    "coding": [
                        {
                            "code": "86406008",
                            "display": "Human immunodeficiency virus infection",
                            "system": "http://snomed.info/sct"
                        }
                    ]
                },
                "recordedDate": "2020-11-17T10:51:04+01:00",
                "subject": {
                    "reference": "Patient/cbaf3669-a8aa-462f-a2a5-8d45c4ccb250"
                },
                "verificationStatus": {
                    "coding": [
                        {
                            "code": "refuted",
                            "display": "Refuted",
                            "system": "http://terminology.hl7.org/CodeSystem/condition-ver-status"
                        },
                        {
                            "code": "410594000",
                            "display": "Definitely NOT present (qualifier value)",
                            "system": "http://snomed.info/sct"
                        }
                    ]
                },
                "resourceType": "Condition"
            }
        },
        {
            "request": {
                "method": "POST",
                "url": "Condition"
            },
            "resource": {
                "id": "5084ec62-72a1-424e-9ebd-cc6401c7e704",
                "meta": {
                    "profile": [
                        "https://www.netzwerk-universitaetsmedizin.de/fhir/StructureDefinition/organ-recipient"
                    ]
                },
                "bodySite": [
                    {
                        "coding": [
                            {
                                "code": "181285005",
                                "display": "Entire heart valve (body structure)",
                                "system": "http://snomed.info/sct"
                            }
                        ]
                    }
                ],
                "category": [
                    {
                        "coding": [
                            {
                                "code": "788415003",
                                "display": "Transplant medicine",
                                "system": "http://snomed.info/sct"
                            }
                        ]
                    }
                ],
                "clinicalStatus": {
                    "coding": [
                        {
                            "code": "active",
                            "display": "Active",
                            "system": "http://terminology.hl7.org/CodeSystem/condition-clinical"
                        }
                    ]
                },
                "code": {
                    "coding": [
                        {
                            "code": "161663000",
                            "display": "History of being a tissue or organ recipient",
                            "system": "http://snomed.info/sct"
                        }
                    ]
                },
                "recordedDate": "2020-11-17T10:51:04+01:00",
                "subject": {
                    "reference": "Patient/cbaf3669-a8aa-462f-a2a5-8d45c4ccb250"
                },
                "verificationStatus": {
                    "coding": [
                        {
                            "code": "confirmed",
                            "display": "Confirmed",
                            "system": "http://terminology.hl7.org/CodeSystem/condition-ver-status"
                        },
                        {
                            "code": "410605003",
                            "display": "Confirmed present (qualifier value)",
                            "system": "http://snomed.info/sct"
                        }
                    ]
                },
                "resourceType": "Condition"
            }
        },
        {
            "request": {
                "method": "POST",
                "url": "Condition"
            },
            "resource": {
                "id": "94df877a-2d8a-43ef-ad9e-4bce167605ad",
                "meta": {
                    "profile": [
                        "https://www.netzwerk-universitaetsmedizin.de/fhir/StructureDefinition/diabetes-mellitus"
                    ]
                },
                "category": [
                    {
                        "coding": [
                            {
                                "code": "408475000",
                                "display": "Diabetic medicine",
                                "system": "http://snomed.info/sct"
                            }
                        ]
                    }
                ],
                "clinicalStatus": {
                    "coding": [
                        {
                            "code": "active",
                            "display": "Active",
                            "system": "http://terminology.hl7.org/CodeSystem/condition-clinical"
                        }
                    ]
                },
                "code": {
                    "coding": [
                        {
                            "code": "73211009",
                            "display": "Diabetes mellitus",
                            "system": "http://snomed.info/sct"
                        }
                    ]
                },
                "recordedDate": "2020-11-17T10:51:04+01:00",
                "subject": {
                    "reference": "Patient/cbaf3669-a8aa-462f-a2a5-8d45c4ccb250"
                },
                "verificationStatus": {
                    "coding": [
                        {
                            "code": "confirmed",
                            "display": "Confirmed",
                            "system": "http://terminology.hl7.org/CodeSystem/condition-ver-status"
                        },
                        {
                            "code": "410605003",
                            "display": "Confirmed present (qualifier value)",
                            "system": "http://snomed.info/sct"
                        }
                    ]
                },
                "resourceType": "Condition"
            }
        },
        {
            "request": {
                "method": "POST",
                "url": "Condition"
            },
            "resource": {
                "id": "fa3dacb2-3fb3-4334-882e-fe0501fd2257",
                "meta": {
                    "profile": [
                        "https://www.netzwerk-universitaetsmedizin.de/fhir/StructureDefinition/diabetes-mellitus"
                    ]
                },
                "category": [
                    {
                        "coding": [
                            {
                                "code": "408475000",
                                "display": "Diabetic medicine",
                                "system": "http://snomed.info/sct"
                            }
                        ]
                    }
                ],
                "clinicalStatus": {
                    "coding": [
                        {
                            "code": "active",
                            "display": "Active",
                            "system": "http://terminology.hl7.org/CodeSystem/condition-clinical"
                        }
                    ]
                },
                "code": {
                    "coding": [
                        {
                            "code": "237599002",
                            "display": "Insulin treated type 2 diabetes mellitus",
                            "system": "http://snomed.info/sct"
                        }
                    ]
                },
                "recordedDate": "2020-11-17T10:51:04+01:00",
                "subject": {
                    "reference": "Patient/cbaf3669-a8aa-462f-a2a5-8d45c4ccb250"
                },
                "verificationStatus": {
                    "coding": [
                        {
                            "code": "confirmed",
                            "display": "Confirmed",
                            "system": "http://terminology.hl7.org/CodeSystem/condition-ver-status"
                        },
                        {
                            "code": "410605003",
                            "display": "Confirmed present (qualifier value)",
                            "system": "http://snomed.info/sct"
                        }
                    ]
                },
                "resourceType": "Condition"
            }
        },
        {
            "request": {
                "method": "POST",
                "url": "Condition"
            },
            "resource": {
                "id": "2a33dc7e-eae4-45c0-9a69-5060b12f4d9e",
                "meta": {
                    "profile": [
                        "https://www.netzwerk-universitaetsmedizin.de/fhir/StructureDefinition/malignant-neoplastic-disease"
                    ]
                },
                "category": [
                    {
                        "coding": [
                            {
                                "code": "394593009",
                                "display": "Medical oncology (qualifier value)",
                                "system": "http://snomed.info/sct"
                            }
                        ]
                    }
                ],
                "code": {
                    "coding": [
                        {
                            "code": "363346000",
                            "display": "Malignant neoplastic disease",
                            "system": "http://snomed.info/sct"
                        }
                    ]
                },
                "recordedDate": "2020-11-17T10:51:04+01:00",
                "subject": {
                    "reference": "Patient/cbaf3669-a8aa-462f-a2a5-8d45c4ccb250"
                },
                "verificationStatus": {
                    "coding": [
                        {
                            "code": "refuted",
                            "display": "Refuted",
                            "system": "http://terminology.hl7.org/CodeSystem/condition-ver-status"
                        },
                        {
                            "code": "410594000",
                            "display": "Definitely NOT present (qualifier value)",
                            "system": "http://snomed.info/sct"
                        }
                    ]
                },
                "resourceType": "Condition"
            }
        },
        {
            "request": {
                "method": "PUT",
                "url": "Observation/cf21e0e8-51eb-4fb5-89cf-bc92b1475841"
            },
            "resource": {
                "id": "cf21e0e8-51eb-4fb5-89cf-bc92b1475841",
                "meta": {
                    "profile": [
                        "https://www.netzwerk-universitaetsmedizin.de/fhir/StructureDefinition/smoking-status"
                    ]
                },
                "category": [
                    {
                        "coding": [
                            {
                                "code": "social-history",
                                "display": "Social History",
                                "system": "http://terminology.hl7.org/CodeSystem/observation-category"
                            }
                        ]
                    }
                ],
                "code": {
                    "coding": [
                        {
                            "code": "72166-2",
                            "display": "Tobacco smoking status",
                            "system": "http://loinc.org"
                        }
                    ]
                },
                "effectiveDateTime": "2020-11-17T10:51:04+01:00",
                "status": "final",
                "subject": {
                    "reference": "Patient/cbaf3669-a8aa-462f-a2a5-8d45c4ccb250"
                },
                "valueCodeableConcept": {
                    "coding": [
                        {
                            "code": "LA18976-3",
                            "display": "Current every day smoker",
                            "system": "http://loinc.org"
                        }
                    ],
                    "text": "Patient is smoker"
                },
                "resourceType": "Observation"
            }
        },
        {
            "request": {
                "method": "POST",
                "url": "Condition"
            },
            "resource": {
                "id": "f57f7ec3-2113-4d67-8a0c-d265c06a1140",
                "meta": {
                    "profile": [
                        "https://www.netzwerk-universitaetsmedizin.de/fhir/StructureDefinition/chronic-neurological-mental-diseases"
                    ]
                },
                "category": [
                    {
                        "coding": [
                            {
                                "code": "394591006",
                                "display": "Neurology",
                                "system": "http://snomed.info/sct"
                            },
                            {
                                "code": "394587001",
                                "display": "Psychiatry",
                                "system": "http://snomed.info/sct"
                            }
                        ]
                    }
                ],
                "code": {
                    "coding": [
                        {
                            "code": "74732009",
                            "display": "Mental disorder",
                            "system": "http://snomed.info/sct"
                        }
                    ]
                },
                "recordedDate": "2020-11-17T10:51:04+01:00",
                "subject": {
                    "reference": "Patient/cbaf3669-a8aa-462f-a2a5-8d45c4ccb250"
                },
                "verificationStatus": {
                    "coding": [
                        {
                            "code": "refuted",
                            "display": "Refuted",
                            "system": "http://terminology.hl7.org/CodeSystem/condition-ver-status"
                        },
                        {
                            "code": "410594000",
                            "display": "Definitely NOT present (qualifier value)",
                            "system": "http://snomed.info/sct"
                        }
                    ]
                },
                "resourceType": "Condition"
            }
        },
        {
            "request": {
                "method": "POST",
                "url": "Condition"
            },
            "resource": {
                "id": "09821a88-45c4-4f67-9c7e-6b692d2f071b",
                "meta": {
                    "profile": [
                        "https://www.netzwerk-universitaetsmedizin.de/fhir/StructureDefinition/chronic-neurological-mental-diseases"
                    ]
                },
                "category": [
                    {
                        "coding": [
                            {
                                "code": "394591006",
                                "display": "Neurology",
                                "system": "http://snomed.info/sct"
                            },
                            {
                                "code": "394587001",
                                "display": "Psychiatry",
                                "system": "http://snomed.info/sct"
                            }
                        ]
                    }
                ],
                "clinicalStatus": {
                    "coding": [
                        {
                            "code": "active",
                            "display": "Active",
                            "system": "http://terminology.hl7.org/CodeSystem/condition-clinical"
                        }
                    ]
                },
                "code": {
                    "coding": [
                        {
                            "code": "128283000",
                            "display": "Chronic nervous system disorder",
                            "system": "http://snomed.info/sct"
                        }
                    ]
                },
                "recordedDate": "2020-11-17T10:51:04+01:00",
                "subject": {
                    "reference": "Patient/cbaf3669-a8aa-462f-a2a5-8d45c4ccb250"
                },
                "verificationStatus": {
                    "coding": [
                        {
                            "code": "confirmed",
                            "display": "Confirmed",
                            "system": "http://terminology.hl7.org/CodeSystem/condition-ver-status"
                        },
                        {
                            "code": "410605003",
                            "display": "Confirmed present (qualifier value)",
                            "system": "http://snomed.info/sct"
                        }
                    ]
                },
                "resourceType": "Condition"
            }
        },
        {
            "request": {
                "method": "POST",
                "url": "Condition"
            },
            "resource": {
                "id": "6e588a59-879f-4c9a-bdf8-0b2780d2a3b3",
                "meta": {
                    "profile": [
                        "https://www.netzwerk-universitaetsmedizin.de/fhir/StructureDefinition/chronic-neurological-mental-diseases"
                    ]
                },
                "category": [
                    {
                        "coding": [
                            {
                                "code": "394591006",
                                "display": "Neurology",
                                "system": "http://snomed.info/sct"
                            },
                            {
                                "code": "394587001",
                                "display": "Psychiatry",
                                "system": "http://snomed.info/sct"
                            }
                        ]
                    }
                ],
                "code": {
                    "coding": [
                        {
                            "code": "49049000",
                            "display": "Parkinson's disease",
                            "system": "http://snomed.info/sct"
                        }
                    ]
                },
                "recordedDate": "2020-11-17T10:51:04+01:00",
                "subject": {
                    "reference": "Patient/cbaf3669-a8aa-462f-a2a5-8d45c4ccb250"
                },
                "verificationStatus": {
                    "coding": [
                        {
                            "code": "refuted",
                            "display": "Refuted",
                            "system": "http://terminology.hl7.org/CodeSystem/condition-ver-status"
                        },
                        {
                            "code": "410594000",
                            "display": "Definitely NOT present (qualifier value)",
                            "system": "http://snomed.info/sct"
                        }
                    ]
                },
                "resourceType": "Condition"
            }
        },
        {
            "request": {
                "method": "POST",
                "url": "Condition"
            },
            "resource": {
                "id": "30196520-6967-4b87-b25a-054213992549",
                "meta": {
                    "profile": [
                        "https://www.netzwerk-universitaetsmedizin.de/fhir/StructureDefinition/chronic-neurological-mental-diseases"
                    ]
                },
                "category": [
                    {
                        "coding": [
                            {
                                "code": "394591006",
                                "display": "Neurology",
                                "system": "http://snomed.info/sct"
                            },
                            {
                                "code": "394587001",
                                "display": "Psychiatry",
                                "system": "http://snomed.info/sct"
                            }
                        ]
                    }
                ],
                "code": {
                    "coding": [
                        {
                            "code": "52448006",
                            "display": "Dementia",
                            "system": "http://snomed.info/sct"
                        }
                    ]
                },
                "recordedDate": "2020-11-17T10:51:04+01:00",
                "subject": {
                    "reference": "Patient/cbaf3669-a8aa-462f-a2a5-8d45c4ccb250"
                },
                "verificationStatus": {
                    "coding": [
                        {
                            "code": "refuted",
                            "display": "Refuted",
                            "system": "http://terminology.hl7.org/CodeSystem/condition-ver-status"
                        },
                        {
                            "code": "410594000",
                            "display": "Definitely NOT present (qualifier value)",
                            "system": "http://snomed.info/sct"
                        }
                    ]
                },
                "resourceType": "Condition"
            }
        },
        {
            "request": {
                "method": "POST",
                "url": "Condition"
            },
            "resource": {
                "id": "6b254609-2749-4bc6-8ca9-53717be080d7",
                "meta": {
                    "profile": [
                        "https://www.netzwerk-universitaetsmedizin.de/fhir/StructureDefinition/chronic-neurological-mental-diseases"
                    ]
                },
                "category": [
                    {
                        "coding": [
                            {
                                "code": "394591006",
                                "display": "Neurology",
                                "system": "http://snomed.info/sct"
                            },
                            {
                                "code": "394587001",
                                "display": "Psychiatry",
                                "system": "http://snomed.info/sct"
                            }
                        ]
                    }
                ],
                "code": {
                    "coding": [
                        {
                            "code": "24700007",
                            "display": "Multiple sclerosis",
                            "system": "http://snomed.info/sct"
                        }
                    ]
                },
                "recordedDate": "2020-11-17T10:51:04+01:00",
                "subject": {
                    "reference": "Patient/cbaf3669-a8aa-462f-a2a5-8d45c4ccb250"
                },
                "verificationStatus": {
                    "coding": [
                        {
                            "code": "refuted",
                            "display": "Refuted",
                            "system": "http://terminology.hl7.org/CodeSystem/condition-ver-status"
                        },
                        {
                            "code": "410594000",
                            "display": "Definitely NOT present (qualifier value)",
                            "system": "http://snomed.info/sct"
                        }
                    ]
                },
                "resourceType": "Condition"
            }
        },
        {
            "request": {
                "method": "POST",
                "url": "Condition"
            },
            "resource": {
                "id": "48a16f4c-24bf-40ba-8c60-b2db5b4efbd4",
                "meta": {
                    "profile": [
                        "https://www.netzwerk-universitaetsmedizin.de/fhir/StructureDefinition/chronic-neurological-mental-diseases"
                    ]
                },
                "category": [
                    {
                        "coding": [
                            {
                                "code": "394591006",
                                "display": "Neurology",
                                "system": "http://snomed.info/sct"
                            },
                            {
                                "code": "394587001",
                                "display": "Psychiatry",
                                "system": "http://snomed.info/sct"
                            }
                        ]
                    }
                ],
                "clinicalStatus": {
                    "coding": [
                        {
                            "code": "active",
                            "display": "Active",
                            "system": "http://terminology.hl7.org/CodeSystem/condition-clinical"
                        }
                    ]
                },
                "code": {
                    "coding": [
                        {
                            "code": "257277002",
                            "display": "Combined disorder of muscle AND peripheral nerve",
                            "system": "http://snomed.info/sct"
                        }
                    ]
                },
                "recordedDate": "2020-11-17T10:51:04+01:00",
                "subject": {
                    "reference": "Patient/cbaf3669-a8aa-462f-a2a5-8d45c4ccb250"
                },
                "verificationStatus": {
                    "coding": [
                        {
                            "code": "confirmed",
                            "display": "Confirmed",
                            "system": "http://terminology.hl7.org/CodeSystem/condition-ver-status"
                        },
                        {
                            "code": "410605003",
                            "display": "Confirmed present (qualifier value)",
                            "system": "http://snomed.info/sct"
                        }
                    ]
                },
                "resourceType": "Condition"
            }
        },
        {
            "request": {
                "method": "POST",
                "url": "Condition"
            },
            "resource": {
                "id": "3f554b8d-9032-4b8f-87d9-c94603aa4011",
                "meta": {
                    "profile": [
                        "https://www.netzwerk-universitaetsmedizin.de/fhir/StructureDefinition/chronic-neurological-mental-diseases"
                    ]
                },
                "category": [
                    {
                        "coding": [
                            {
                                "code": "394591006",
                                "display": "Neurology",
                                "system": "http://snomed.info/sct"
                            },
                            {
                                "code": "394587001",
                                "display": "Psychiatry",
                                "system": "http://snomed.info/sct"
                            }
                        ]
                    }
                ],
                "code": {
                    "coding": [
                        {
                            "code": "84757009",
                            "display": "Epilepsy",
                            "system": "http://snomed.info/sct"
                        }
                    ]
                },
                "recordedDate": "2020-11-17T10:51:04+01:00",
                "subject": {
                    "reference": "Patient/cbaf3669-a8aa-462f-a2a5-8d45c4ccb250"
                },
                "verificationStatus": {
                    "coding": [
                        {
                            "code": "refuted",
                            "display": "Refuted",
                            "system": "http://terminology.hl7.org/CodeSystem/condition-ver-status"
                        },
                        {
                            "code": "410594000",
                            "display": "Definitely NOT present (qualifier value)",
                            "system": "http://snomed.info/sct"
                        }
                    ]
                },
                "resourceType": "Condition"
            }
        },
        {
            "request": {
                "method": "POST",
                "url": "Condition"
            },
            "resource": {
                "id": "ba14a389-012c-49fd-8f1a-b6c669b53d8b",
                "meta": {
                    "profile": [
                        "https://www.netzwerk-universitaetsmedizin.de/fhir/StructureDefinition/chronic-neurological-mental-diseases"
                    ]
                },
                "category": [
                    {
                        "coding": [
                            {
                                "code": "394591006",
                                "display": "Neurology",
                                "system": "http://snomed.info/sct"
                            },
                            {
                                "code": "394587001",
                                "display": "Psychiatry",
                                "system": "http://snomed.info/sct"
                            }
                        ]
                    }
                ],
                "clinicalStatus": {
                    "coding": [
                        {
                            "code": "active",
                            "display": "Active",
                            "system": "http://terminology.hl7.org/CodeSystem/condition-clinical"
                        }
                    ]
                },
                "code": {
                    "coding": [
                        {
                            "code": "37796009",
                            "display": "Migraine",
                            "system": "http://snomed.info/sct"
                        }
                    ]
                },
                "recordedDate": "2020-11-17T10:51:04+01:00",
                "subject": {
                    "reference": "Patient/cbaf3669-a8aa-462f-a2a5-8d45c4ccb250"
                },
                "verificationStatus": {
                    "coding": [
                        {
                            "code": "confirmed",
                            "display": "Confirmed",
                            "system": "http://terminology.hl7.org/CodeSystem/condition-ver-status"
                        },
                        {
                            "code": "410605003",
                            "display": "Confirmed present (qualifier value)",
                            "system": "http://snomed.info/sct"
                        }
                    ]
                },
                "resourceType": "Condition"
            }
        },
        {
            "request": {
                "method": "POST",
                "url": "Condition"
            },
            "resource": {
                "id": "70901020-88f9-4733-9b66-5392a5b911e6",
                "meta": {
                    "profile": [
                        "https://www.netzwerk-universitaetsmedizin.de/fhir/StructureDefinition/chronic-neurological-mental-diseases"
                    ]
                },
                "extension": [
                    {
                        "url": "https://www.netzwerk-universitaetsmedizin.de/fhir/StructureDefinition/uncertainty-of-presence",
                        "valueCodeableConcept": {
                            "coding": [
                                {
                                    "code": "261665006",
                                    "display": "Unknown (qualifier value)",
                                    "system": "http://snomed.info/sct"
                                }
                            ],
                            "text": "Presence of condition is unknown."
                        }
                    }
                ],
                "category": [
                    {
                        "coding": [
                            {
                                "code": "394591006",
                                "display": "Neurology",
                                "system": "http://snomed.info/sct"
                            },
                            {
                                "code": "394587001",
                                "display": "Psychiatry",
                                "system": "http://snomed.info/sct"
                            }
                        ]
                    }
                ],
                "code": {
                    "coding": [
                        {
                            "code": "440140008",
                            "display": "History of cerebrovascular accident with residual deficit",
                            "system": "http://snomed.info/sct"
                        }
                    ]
                },
                "recordedDate": "2020-11-17T10:51:04+01:00",
                "subject": {
                    "reference": "Patient/cbaf3669-a8aa-462f-a2a5-8d45c4ccb250"
                },
                "resourceType": "Condition"
            }
        },
        {
            "request": {
                "method": "POST",
                "url": "Condition"
            },
            "resource": {
                "id": "f43258d7-5c51-49eb-b4a8-9c51502cd2f3",
                "meta": {
                    "profile": [
                        "https://www.netzwerk-universitaetsmedizin.de/fhir/StructureDefinition/chronic-neurological-mental-diseases"
                    ]
                },
                "category": [
                    {
                        "coding": [
                            {
                                "code": "394591006",
                                "display": "Neurology",
                                "system": "http://snomed.info/sct"
                            },
                            {
                                "code": "394587001",
                                "display": "Psychiatry",
                                "system": "http://snomed.info/sct"
                            }
                        ]
                    }
                ],
                "code": {
                    "coding": [
                        {
                            "code": "429993008",
                            "display": "History of cerebrovascular accident without residual deficits",
                            "system": "http://snomed.info/sct"
                        }
                    ]
                },
                "recordedDate": "2020-11-17T10:51:04+01:00",
                "subject": {
                    "reference": "Patient/cbaf3669-a8aa-462f-a2a5-8d45c4ccb250"
                },
                "verificationStatus": {
                    "coding": [
                        {
                            "code": "refuted",
                            "display": "Refuted",
                            "system": "http://terminology.hl7.org/CodeSystem/condition-ver-status"
                        },
                        {
                            "code": "410594000",
                            "display": "Definitely NOT present (qualifier value)",
                            "system": "http://snomed.info/sct"
                        }
                    ]
                },
                "resourceType": "Condition"
            }
        },
        {
            "request": {
                "method": "POST",
                "url": "Procedure"
            },
            "resource": {
                "id": "0d587544-3bc3-4c28-af55-3dbab285cc58",
                "meta": {
                    "profile": [
                        "https://www.netzwerk-universitaetsmedizin.de/fhir/StructureDefinition/respiratory-therapies"
                    ]
                },
                "category": {
                    "coding": [
                        {
                            "code": "277132007",
                            "display": "Therapeutic procedure",
                            "system": "http://snomed.info/sct"
                        }
                    ]
                },
                "code": {
                    "coding": [
                        {
                            "code": "53950000",
                            "display": "Respiratory therapy",
                            "system": "http://snomed.info/sct"
                        }
                    ]
                },
                "performedDateTime": "2020-11-17T10:51:04+01:00",
                "status": "in-progress",
                "subject": {
                    "reference": "Patient/cbaf3669-a8aa-462f-a2a5-8d45c4ccb250"
                },
                "resourceType": "Procedure"
            }
        },
        {
            "request": {
                "method": "POST",
                "url": "Condition"
            },
            "resource": {
                "id": "b77e00ff-76cc-4084-9337-cdc2b27d7e74",
                "meta": {
                    "profile": [
                        "https://www.netzwerk-universitaetsmedizin.de/fhir/StructureDefinition/chronic-kidney-diseases"
                    ]
                },
                "category": [
                    {
                        "coding": [
                            {
                                "code": "394589003",
                                "display": "Nephrology (qualifier value)",
                                "system": "http://snomed.info/sct"
                            }
                        ]
                    }
                ],
                "clinicalStatus": {
                    "coding": [
                        {
                            "code": "active",
                            "display": "Active",
                            "system": "http://terminology.hl7.org/CodeSystem/condition-clinical"
                        }
                    ]
                },
                "code": {
                    "coding": [
                        {
                            "code": "709044004",
                            "display": "Chronic kidney disease (disorder)",
                            "system": "http://snomed.info/sct"
                        }
                    ]
                },
                "recordedDate": "2020-11-17T10:51:04+01:00",
                "subject": {
                    "reference": "Patient/cbaf3669-a8aa-462f-a2a5-8d45c4ccb250"
                },
                "verificationStatus": {
                    "coding": [
                        {
                            "code": "confirmed",
                            "display": "Confirmed",
                            "system": "http://terminology.hl7.org/CodeSystem/condition-ver-status"
                        },
                        {
                            "code": "410605003",
                            "display": "Confirmed present (qualifier value)",
                            "system": "http://snomed.info/sct"
                        }
                    ]
                },
                "resourceType": "Condition"
            }
        },
        {
            "request": {
                "method": "POST",
                "url": "Condition"
            },
            "resource": {
                "id": "0952f3ef-6562-4816-b96f-270f27ae6d7d",
                "meta": {
                    "profile": [
                        "https://www.netzwerk-universitaetsmedizin.de/fhir/StructureDefinition/chronic-kidney-diseases"
                    ]
                },
                "category": [
                    {
                        "coding": [
                            {
                                "code": "394589003",
                                "display": "Nephrology (qualifier value)",
                                "system": "http://snomed.info/sct"
                            }
                        ]
                    }
                ],
                "clinicalStatus": {
                    "coding": [
                        {
                            "code": "active",
                            "display": "Active",
                            "system": "http://terminology.hl7.org/CodeSystem/condition-clinical"
                        }
                    ]
                },
                "code": {
                    "coding": [
                        {
                            "code": "714152005",
                            "display": "Chronic kidney disease stage 5 on dialysis (disorder)",
                            "system": "http://snomed.info/sct"
                        }
                    ]
                },
                "recordedDate": "2020-11-17T10:51:04+01:00",
                "subject": {
                    "reference": "Patient/cbaf3669-a8aa-462f-a2a5-8d45c4ccb250"
                },
                "verificationStatus": {
                    "coding": [
                        {
                            "code": "confirmed",
                            "display": "Confirmed",
                            "system": "http://terminology.hl7.org/CodeSystem/condition-ver-status"
                        },
                        {
                            "code": "410605003",
                            "display": "Confirmed present (qualifier value)",
                            "system": "http://snomed.info/sct"
                        }
                    ]
                },
                "resourceType": "Condition"
            }
        },
        {
            "request": {
                "method": "PUT",
                "url": "Observation/ee394a5f-eb0b-43e3-9510-0218f0af594c"
            },
            "resource": {
                "id": "ee394a5f-eb0b-43e3-9510-0218f0af594c",
                "meta": {
                    "profile": [
                        "https://www.netzwerk-universitaetsmedizin.de/fhir/StructureDefinition/history-of-travel"
                    ]
                },
                "category": [
                    {
                        "coding": [
                            {
                                "code": "social-history",
                                "system": "http://terminology.hl7.org/CodeSystem/observation-category"
                            }
                        ]
                    }
                ],
                "code": {
                    "coding": [
                        {
                            "code": "8691-8",
                            "display": "History of Travel",
                            "system": "http://loinc.org"
                        },
                        {
                            "code": "443846001",
                            "display": "Detail of history of travel (observable entity)",
                            "system": "http://snomed.info/sct"
                        }
                    ],
                    "text": "History of travel"
                },
                "component": [
                    {
                        "code": {
                            "coding": [
                                {
                                    "code": "82752-7",
                                    "display": "Date travel started",
                                    "system": "http://loinc.org"
                                }
                            ],
                            "text": "Travel start date"
                        },
                        "valueDateTime": "2020-10-23"
                    },
                    {
                        "code": {
                            "coding": [
                                {
                                    "code": "94651-7",
                                    "display": "Country of travel",
                                    "system": "http://loinc.org"
                                }
                            ],
                            "text": "Country of travel"
                        },
                        "valueCodeableConcept": {
                            "coding": [
                                {
                                    "code": "DE",
                                    "display": "Germany",
                                    "system": "urn:iso:std:iso:3166"
                                }
                            ],
                            "text": "Germany"
                        }
                    },
                    {
                        "code": {
                            "coding": [
                                {
                                    "code": "82754-3",
                                    "display": "State of travel",
                                    "system": "http://loinc.org"
                                }
                            ],
                            "text": "State of travel"
                        },
                        "valueCodeableConcept": {
                            "coding": [
                                {
                                    "code": "DE-NW",
                                    "display": "Nordrhein-Westfalen",
                                    "system": "urn:iso:std:iso:3166-2:de"
                                }
                            ],
                            "text": "Nordrhein-Westfalen"
                        }
                    },
                    {
                        "code": {
                            "coding": [
                                {
                                    "code": "94653-3",
                                    "display": "City of travel",
                                    "system": "http://loinc.org"
                                }
                            ],
                            "text": "City of travel"
                        },
                        "valueString": "Bochum"
                    },
                    {
                        "code": {
                            "coding": [
                                {
                                    "code": "91560-3",
                                    "display": "Date of departure from travel destination",
                                    "system": "http://loinc.org"
                                }
                            ],
                            "text": "Travel end date"
                        },
                        "valueDateTime": "2020-11-01"
                    }
                ],
                "effectiveDateTime": "2020-11-17T10:51:04+01:00",
                "identifier": [
                    {
                        "assigner": {
                            "reference": "Organization/Charit\u00e9"
                        },
                        "system": "https://www.charite.de/fhir/CodeSystem/observation-identifiers",
                        "type": {
                            "coding": [
                                {
                                    "code": "OBI",
                                    "system": "http://terminology.hl7.org/CodeSystem/v2-0203"
                                }
                            ]
                        },
                        "value": "8691-8_HistoryOfTravel"
                    }
                ],
                "status": "final",
                "subject": {
                    "reference": "Patient/cbaf3669-a8aa-462f-a2a5-8d45c4ccb250"
                },
                "valueCodeableConcept": {
                    "coding": [
                        {
                            "code": "373066001",
                            "display": "Yes (qualifier value)",
                            "system": "http://snomed.info/sct"
                        }
                    ]
                },
                "resourceType": "Observation"
            }
        },
        {
            "request": {
                "method": "POST",
                "url": "Condition"
            },
            "resource": {
                "id": "91f7cd74-3289-4fef-849e-4a9c6bb82ad0",
                "meta": {
                    "profile": [
                        "https://www.netzwerk-universitaetsmedizin.de/fhir/StructureDefinition/gastrointestinal-ulcers"
                    ]
                },
                "extension": [
                    {
                        "url": "https://www.netzwerk-universitaetsmedizin.de/fhir/StructureDefinition/uncertainty-of-presence",
                        "valueCodeableConcept": {
                            "coding": [
                                {
                                    "code": "261665006",
                                    "display": "Unknown (qualifier value)",
                                    "system": "http://snomed.info/sct"
                                }
                            ],
                            "text": "Presence of condition is unknown."
                        }
                    }
                ],
                "category": [
                    {
                        "coding": [
                            {
                                "code": "394584008",
                                "display": "Gastroenterology",
                                "system": "http://snomed.info/sct"
                            }
                        ]
                    }
                ],
                "code": {
                    "coding": [
                        {
                            "code": "40845000",
                            "display": "Gastrointestinal ulcer",
                            "system": "http://snomed.info/sct"
                        }
                    ]
                },
                "recordedDate": "2020-11-17T10:51:04+01:00",
                "subject": {
                    "reference": "Patient/cbaf3669-a8aa-462f-a2a5-8d45c4ccb250"
                },
                "resourceType": "Condition"
            }
        },
        {
            "request": {
                "method": "POST",
                "url": "Immunization"
            },
            "resource": {
                "id": "9b6e8cb2-6a5f-4ce6-b935-e57e64a7a258",
                "meta": {
                    "profile": [
                        "https://www.netzwerk-universitaetsmedizin.de/fhir/StructureDefinition/immunization"
                    ]
                },
                "occurrenceDateTime": "2020-10-06",
                "patient": {
                    "reference": "Patient/cbaf3669-a8aa-462f-a2a5-8d45c4ccb250"
                },
                "protocolApplied": [
                    {
                        "doseNumberString": "unknown",
                        "targetDisease": [
                            {
                                "coding": [
                                    {
                                        "code": "16814004",
                                        "display": "Pneumococcal infectious disease",
                                        "system": "http://snomed.info/sct"
                                    }
                                ]
                            }
                        ]
                    }
                ],
                "status": "completed",
                "vaccineCode": {
                    "coding": [
                        {
                            "code": "J07AL",
                            "display": "Pneumokokken-Impfstoffe",
                            "system": "http://fhir.de/CodeSystem/dimdi/atc"
                        },
                        {
                            "code": "333598008",
                            "display": "Pneumococcal vaccine",
                            "system": "http://snomed.info/sct"
                        }
                    ]
                },
                "resourceType": "Immunization"
            }
        },
        {
            "request": {
                "method": "POST",
                "url": "Consent"
            },
            "resource": {
                "id": "37ee16c9-1df8-4a89-85b4-87e5e544c9f5",
                "meta": {
                    "profile": [
                        "https://www.netzwerk-universitaetsmedizin.de/fhir/StructureDefinition/do-not-resuscitate-order"
                    ]
                },
                "category": [
                    {
                        "coding": [
                            {
                                "code": "dnr",
                                "display": "Do Not Resuscitate",
                                "system": "http://terminology.hl7.org/CodeSystem/consentcategorycodes"
                            }
                        ]
                    }
                ],
                "patient": {
                    "reference": "Patient/cbaf3669-a8aa-462f-a2a5-8d45c4ccb250"
                },
                "policy": [
                    {
                        "uri": "https://www.aerzteblatt.de/archiv/65440/DNR-Anordnungen-Das-fehlende-Bindeglied"
                    }
                ],
                "provision": {
                    "code": [
                        {
                            "coding": [
                                {
                                    "code": "261665006",
                                    "display": "Unknown (qualifier value)",
                                    "system": "http://snomed.info/sct"
                                }
                            ]
                        }
                    ]
                },
                "scope": {
                    "coding": [
                        {
                            "code": "adr",
                            "display": "Advanced Care Directive",
                            "system": "http://terminology.hl7.org/CodeSystem/consentscope"
                        }
                    ]
                },
                "status": "active",
                "resourceType": "Consent"
            }
        },
        {
            "request": {
                "method": "PUT",
                "url": "DiagnosticReport/94375aaf-cb68-4437-892e-0e60e079bb5c"
            },
            "resource": {
                "id": "94375aaf-cb68-4437-892e-0e60e079bb5c",
                "meta": {
                    "profile": [
                        "https://www.netzwerk-universitaetsmedizin.de/fhir/StructureDefinition/diagnostic-report-radiology"
                    ]
                },
                "category": [
                    {
                        "coding": [
                            {
                                "code": "18726-0",
                                "display": "Radiology studies (set)",
                                "system": "http://loinc.org"
                            },
                            {
                                "code": "RAD",
                                "display": "Radiology",
                                "system": "http://terminology.hl7.org/CodeSystem/v2-0074"
                            }
                        ]
                    }
                ],
                "code": {
                    "coding": [
                        {
                            "code": "18748-4",
                            "display": "Diagnostic imaging study",
                            "system": "http://loinc.org"
                        }
                    ]
                },
                "conclusion": "COVID-19-typischer Befund",
                "conclusionCode": [
                    {
                        "coding": [
                            {
                                "code": "118247008:{363713009=263654008,42752001=840539006}",
                                "display": "|Radiologic finding (finding)|:{|Has interpretation (attribute)|=|Abnormal (qualifier value)|,|Due to (attribute)|=|Disease caused by severe acute respiratory syndrome coronavirus 2 (disorder)|}",
                                "system": "http://snomed.info/sct"
                            }
                        ]
                    }
                ],
                "effectiveDateTime": "2020-11-17T10:51:04+01:00",
                "status": "final",
                "subject": {
                    "reference": "Patient/cbaf3669-a8aa-462f-a2a5-8d45c4ccb250"
                },
                "resourceType": "DiagnosticReport"
            }
        },
        {
            "request": {
                "method": "POST",
                "url": "Procedure"
            },
            "resource": {
                "id": "423b1a02-3e3b-411b-be7e-cbd803cb41ab",
                "meta": {
                    "profile": [
                        "https://www.netzwerk-universitaetsmedizin.de/fhir/StructureDefinition/radiology-procedures"
                    ]
                },
                "bodySite": [
                    {
                        "coding": [
                            {
                                "code": "39607008",
                                "display": "Lung structure (body structure)",
                                "system": "http://snomed.info/sct"
                            }
                        ]
                    }
                ],
                "category": {
                    "coding": [
                        {
                            "code": "103693007",
                            "display": "Diagnostic procedure (procedure)",
                            "system": "http://snomed.info/sct"
                        }
                    ]
                },
                "code": {
                    "coding": [
                        {
                            "code": "168537006",
                            "display": "Plain radiography",
                            "system": "http://snomed.info/sct"
                        },
                        {
                            "code": "RG",
                            "display": "Radiographic imaging",
                            "system": "http://dicom.nema.org/resources/ontology/DCM"
                        }
                    ],
                    "text": "Chest x-ray"
                },
                "performedDateTime": "2020-11-17T10:51:04+01:00",
                "report": [
                    {
                        "reference": "DiagnosticReport/94375aaf-cb68-4437-892e-0e60e079bb5c"
                    }
                ],
                "status": "completed",
                "subject": {
                    "reference": "Patient/cbaf3669-a8aa-462f-a2a5-8d45c4ccb250"
                },
                "resourceType": "Procedure"
            }
        },
        {
            "request": {
                "method": "POST",
                "url": "Procedure"
            },
            "resource": {
                "id": "004f2dda-b41c-4a64-b683-81098bc10453",
                "meta": {
                    "profile": [
                        "https://www.netzwerk-universitaetsmedizin.de/fhir/StructureDefinition/radiology-procedures"
                    ]
                },
                "bodySite": [
                    {
                        "coding": [
                            {
                                "code": "39607008",
                                "display": "Lung structure (body structure)",
                                "system": "http://snomed.info/sct"
                            }
                        ]
                    }
                ],
                "category": {
                    "coding": [
                        {
                            "code": "103693007",
                            "display": "Diagnostic procedure (procedure)",
                            "system": "http://snomed.info/sct"
                        }
                    ]
                },
                "code": {
                    "coding": [
                        {
                            "code": "77477000",
                            "display": "Computerized axial tomography (procedure)",
                            "system": "http://snomed.info/sct"
                        },
                        {
                            "code": "CT",
                            "display": "Computed Tomography",
                            "system": "http://dicom.nema.org/resources/ontology/DCM"
                        }
                    ],
                    "text": "Computed Tomography"
                },
                "performedDateTime": "2020-11-17T10:51:04+01:00",
                "report": [
                    {
                        "reference": "DiagnosticReport/94375aaf-cb68-4437-892e-0e60e079bb5c"
                    }
                ],
                "status": "completed",
                "subject": {
                    "reference": "Patient/cbaf3669-a8aa-462f-a2a5-8d45c4ccb250"
                },
                "resourceType": "Procedure"
            }
        },
        {
            "request": {
                "method": "POST",
                "url": "Procedure"
            },
            "resource": {
                "id": "1894b7e4-e600-49cc-9ec2-bebb97663ab0",
                "meta": {
                    "profile": [
                        "https://www.netzwerk-universitaetsmedizin.de/fhir/StructureDefinition/radiology-procedures"
                    ]
                },
                "bodySite": [
                    {
                        "coding": [
                            {
                                "code": "39607008",
                                "display": "Lung structure (body structure)",
                                "system": "http://snomed.info/sct"
                            }
                        ]
                    }
                ],
                "category": {
                    "coding": [
                        {
                            "code": "103693007",
                            "display": "Diagnostic procedure (procedure)",
                            "system": "http://snomed.info/sct"
                        }
                    ]
                },
                "code": {
                    "coding": [
                        {
                            "code": "16310003",
                            "display": "Diagnostic ultrasonography (procedure)",
                            "system": "http://snomed.info/sct"
                        },
                        {
                            "code": "US",
                            "display": "Ultrasound",
                            "system": "http://dicom.nema.org/resources/ontology/DCM"
                        }
                    ],
                    "text": "Ultrasound"
                },
                "performedDateTime": "2020-11-17T10:51:04+01:00",
                "report": [
                    {
                        "reference": "DiagnosticReport/94375aaf-cb68-4437-892e-0e60e079bb5c"
                    }
                ],
                "status": "completed",
                "subject": {
                    "reference": "Patient/cbaf3669-a8aa-462f-a2a5-8d45c4ccb250"
                },
                "resourceType": "Procedure"
            }
        },
        {
            "request": {
                "method": "PUT",
                "url": "Observation/90d67516-8026-4b4e-9e5a-f2c9deb717bd"
            },
            "resource": {
                "id": "90d67516-8026-4b4e-9e5a-f2c9deb717bd",
                "meta": {
                    "profile": [
                        "https://www.netzwerk-universitaetsmedizin.de/fhir/StructureDefinition/known-exposure"
                    ]
                },
                "category": [
                    {
                        "coding": [
                            {
                                "code": "social-history",
                                "system": "http://terminology.hl7.org/CodeSystem/observation-category"
                            }
                        ]
                    }
                ],
                "code": {
                    "coding": [
                        {
                            "code": "88636-6",
                            "display": "Known exposure [Identifier]",
                            "system": "http://loinc.org"
                        }
                    ],
                    "text": "Known exposure"
                },
                "effectiveDateTime": "2020-11-14",
                "identifier": [
                    {
                        "assigner": {
                            "reference": "Organization/Charit\u00e9"
                        },
                        "system": "https://www.charite.de/fhir/CodeSystem/observation-identifiers",
                        "type": {
                            "coding": [
                                {
                                    "code": "OBI",
                                    "system": "http://terminology.hl7.org/CodeSystem/v2-0203"
                                }
                            ]
                        },
                        "value": "88636-6_KnownExposure"
                    }
                ],
                "status": "final",
                "subject": {
                    "reference": "Patient/cbaf3669-a8aa-462f-a2a5-8d45c4ccb250"
                },
                "valueCodeableConcept": {
                    "coding": [
                        {
                            "code": "840546002",
                            "display": "Exposure to severe acute respiratory syndrome coronavirus 2 (event)",
                            "system": "http://snomed.info/sct"
                        }
                    ]
                },
                "resourceType": "Observation"
            }
        },
        {
            "request": {
                "method": "POST",
                "url": "Condition"
            },
            "resource": {
                "id": "de637cfa-fc94-48b6-9fd0-197fe374343d",
                "meta": {
                    "profile": [
                        "https://www.netzwerk-universitaetsmedizin.de/fhir/StructureDefinition/complications-covid-19"
                    ]
                },
                "extension": [
                    {
                        "url": "https://www.netzwerk-universitaetsmedizin.de/fhir/StructureDefinition/uncertainty-of-presence",
                        "valueCodeableConcept": {
                            "coding": [
                                {
                                    "code": "261665006",
                                    "display": "Unknown (qualifier value)",
                                    "system": "http://snomed.info/sct"
                                }
                            ],
                            "text": "Presence of condition is unknown."
                        }
                    }
                ],
                "category": [
                    {
                        "coding": [
                            {
                                "code": "116223007",
                                "display": "Complication (disorder)",
                                "system": "http://snomed.info/sct"
                            }
                        ]
                    }
                ],
                "code": {
                    "coding": [
                        {
                            "code": "128601007",
                            "display": "Infectious disease of lung (disorder)",
                            "system": "http://snomed.info/sct"
                        }
                    ]
                },
                "recordedDate": "2020-11-17T10:51:04+01:00",
                "subject": {
                    "reference": "Patient/cbaf3669-a8aa-462f-a2a5-8d45c4ccb250"
                },
                "resourceType": "Condition"
            }
        },
        {
            "request": {
                "method": "POST",
                "url": "Condition"
            },
            "resource": {
                "id": "d40dd14a-b9c4-4b26-ba56-1c68ba733b46",
                "meta": {
                    "profile": [
                        "https://www.netzwerk-universitaetsmedizin.de/fhir/StructureDefinition/complications-covid-19"
                    ]
                },
                "extension": [
                    {
                        "url": "https://www.netzwerk-universitaetsmedizin.de/fhir/StructureDefinition/uncertainty-of-presence",
                        "valueCodeableConcept": {
                            "coding": [
                                {
                                    "code": "261665006",
                                    "display": "Unknown (qualifier value)",
                                    "system": "http://snomed.info/sct"
                                }
                            ],
                            "text": "Presence of condition is unknown."
                        }
                    }
                ],
                "category": [
                    {
                        "coding": [
                            {
                                "code": "116223007",
                                "display": "Complication (disorder)",
                                "system": "http://snomed.info/sct"
                            }
                        ]
                    }
                ],
                "code": {
                    "coding": [
                        {
                            "code": "434156008",
                            "display": "Infectious agent in bloodstream (finding)",
                            "system": "http://snomed.info/sct"
                        }
                    ]
                },
                "recordedDate": "2020-11-17T10:51:04+01:00",
                "subject": {
                    "reference": "Patient/cbaf3669-a8aa-462f-a2a5-8d45c4ccb250"
                },
                "resourceType": "Condition"
            }
        },
        {
            "request": {
                "method": "POST",
                "url": "Condition"
            },
            "resource": {
                "id": "4c40d55c-ccd7-4000-adf3-b59693dc2657",
                "meta": {
                    "profile": [
                        "https://www.netzwerk-universitaetsmedizin.de/fhir/StructureDefinition/complications-covid-19"
                    ]
                },
                "category": [
                    {
                        "coding": [
                            {
                                "code": "116223007",
                                "display": "Complication (disorder)",
                                "system": "http://snomed.info/sct"
                            }
                        ]
                    }
                ],
                "clinicalStatus": {
                    "coding": [
                        {
                            "code": "active",
                            "display": "Active",
                            "system": "http://terminology.hl7.org/CodeSystem/condition-clinical"
                        }
                    ]
                },
                "code": {
                    "coding": [
                        {
                            "code": "111293003",
                            "display": "Venous thrombosis (disorder)",
                            "system": "http://snomed.info/sct"
                        }
                    ]
                },
                "recordedDate": "2020-11-17T10:51:04+01:00",
                "subject": {
                    "reference": "Patient/cbaf3669-a8aa-462f-a2a5-8d45c4ccb250"
                },
                "verificationStatus": {
                    "coding": [
                        {
                            "code": "confirmed",
                            "display": "Confirmed",
                            "system": "http://terminology.hl7.org/CodeSystem/condition-ver-status"
                        },
                        {
                            "code": "410605003",
                            "display": "Confirmed present (qualifier value)",
                            "system": "http://snomed.info/sct"
                        }
                    ]
                },
                "resourceType": "Condition"
            }
        },
        {
            "request": {
                "method": "POST",
                "url": "Condition"
            },
            "resource": {
                "id": "d316ff48-f2a2-4696-88af-5f8a2c330026",
                "meta": {
                    "profile": [
                        "https://www.netzwerk-universitaetsmedizin.de/fhir/StructureDefinition/complications-covid-19"
                    ]
                },
                "category": [
                    {
                        "coding": [
                            {
                                "code": "116223007",
                                "display": "Complication (disorder)",
                                "system": "http://snomed.info/sct"
                            }
                        ]
                    }
                ],
                "clinicalStatus": {
                    "coding": [
                        {
                            "code": "active",
                            "display": "Active",
                            "system": "http://terminology.hl7.org/CodeSystem/condition-clinical"
                        }
                    ]
                },
                "code": {
                    "coding": [
                        {
                            "code": "59282003",
                            "display": "Pulmonary embolism (disorder)",
                            "system": "http://snomed.info/sct"
                        }
                    ]
                },
                "recordedDate": "2020-11-17T10:51:04+01:00",
                "subject": {
                    "reference": "Patient/cbaf3669-a8aa-462f-a2a5-8d45c4ccb250"
                },
                "verificationStatus": {
                    "coding": [
                        {
                            "code": "confirmed",
                            "display": "Confirmed",
                            "system": "http://terminology.hl7.org/CodeSystem/condition-ver-status"
                        },
                        {
                            "code": "410605003",
                            "display": "Confirmed present (qualifier value)",
                            "system": "http://snomed.info/sct"
                        }
                    ]
                },
                "resourceType": "Condition"
            }
        },
        {
            "request": {
                "method": "POST",
                "url": "Condition"
            },
            "resource": {
                "id": "0fadac8f-214e-4f13-bce3-f4820d9694eb",
                "meta": {
                    "profile": [
                        "https://www.netzwerk-universitaetsmedizin.de/fhir/StructureDefinition/complications-covid-19"
                    ]
                },
                "extension": [
                    {
                        "url": "https://www.netzwerk-universitaetsmedizin.de/fhir/StructureDefinition/uncertainty-of-presence",
                        "valueCodeableConcept": {
                            "coding": [
                                {
                                    "code": "261665006",
                                    "display": "Unknown (qualifier value)",
                                    "system": "http://snomed.info/sct"
                                }
                            ],
                            "text": "Presence of condition is unknown."
                        }
                    }
                ],
                "category": [
                    {
                        "coding": [
                            {
                                "code": "116223007",
                                "display": "Complication (disorder)",
                                "system": "http://snomed.info/sct"
                            }
                        ]
                    }
                ],
                "code": {
                    "coding": [
                        {
                            "code": "230690007",
                            "display": "Cerebrovascular accident (disorder)",
                            "system": "http://snomed.info/sct"
                        }
                    ]
                },
                "recordedDate": "2020-11-17T10:51:04+01:00",
                "subject": {
                    "reference": "Patient/cbaf3669-a8aa-462f-a2a5-8d45c4ccb250"
                },
                "resourceType": "Condition"
            }
        },
        {
            "request": {
                "method": "POST",
                "url": "Condition"
            },
            "resource": {
                "id": "75c88057-3752-4b69-8c0a-07290e6ac507",
                "meta": {
                    "profile": [
                        "https://www.netzwerk-universitaetsmedizin.de/fhir/StructureDefinition/complications-covid-19"
                    ]
                },
                "extension": [
                    {
                        "url": "https://www.netzwerk-universitaetsmedizin.de/fhir/StructureDefinition/uncertainty-of-presence",
                        "valueCodeableConcept": {
                            "coding": [
                                {
                                    "code": "261665006",
                                    "display": "Unknown (qualifier value)",
                                    "system": "http://snomed.info/sct"
                                }
                            ],
                            "text": "Presence of condition is unknown."
                        }
                    }
                ],
                "category": [
                    {
                        "coding": [
                            {
                                "code": "116223007",
                                "display": "Complication (disorder)",
                                "system": "http://snomed.info/sct"
                            }
                        ]
                    }
                ],
                "code": {
                    "coding": [
                        {
                            "code": "22298006",
                            "display": "Myocardial infarction (disorder)",
                            "system": "http://snomed.info/sct"
                        }
                    ]
                },
                "recordedDate": "2020-11-17T10:51:04+01:00",
                "subject": {
                    "reference": "Patient/cbaf3669-a8aa-462f-a2a5-8d45c4ccb250"
                },
                "resourceType": "Condition"
            }
        },
        {
            "request": {
                "method": "POST",
                "url": "Condition"
            },
            "resource": {
                "id": "6db0b0b4-fde5-410f-96d9-dd0eda8b1262",
                "meta": {
                    "profile": [
                        "https://www.netzwerk-universitaetsmedizin.de/fhir/StructureDefinition/complications-covid-19"
                    ]
                },
                "category": [
                    {
                        "coding": [
                            {
                                "code": "116223007",
                                "display": "Complication (disorder)",
                                "system": "http://snomed.info/sct"
                            }
                        ]
                    }
                ],
                "clinicalStatus": {
                    "coding": [
                        {
                            "code": "active",
                            "display": "Active",
                            "system": "http://terminology.hl7.org/CodeSystem/condition-clinical"
                        }
                    ]
                },
                "code": {
                    "coding": [
                        {
                            "code": "129561000119108",
                            "display": "Pre-renal acute kidney injury (disorder)",
                            "system": "http://snomed.info/sct"
                        }
                    ]
                },
                "recordedDate": "2020-11-17T10:51:04+01:00",
                "subject": {
                    "reference": "Patient/cbaf3669-a8aa-462f-a2a5-8d45c4ccb250"
                },
                "verificationStatus": {
                    "coding": [
                        {
                            "code": "confirmed",
                            "display": "Confirmed",
                            "system": "http://terminology.hl7.org/CodeSystem/condition-ver-status"
                        },
                        {
                            "code": "410605003",
                            "display": "Confirmed present (qualifier value)",
                            "system": "http://snomed.info/sct"
                        }
                    ]
                },
                "resourceType": "Condition"
            }
        },
        {
            "request": {
                "method": "POST",
                "url": "Condition"
            },
            "resource": {
                "id": "50778e77-b580-4cde-8da2-79aad4be0578",
                "meta": {
                    "profile": [
                        "https://www.netzwerk-universitaetsmedizin.de/fhir/StructureDefinition/diagnosis-covid-19"
                    ]
                },
                "category": [
                    {
                        "coding": [
                            {
                                "code": "394807007",
                                "display": "Infectious diseases (specialty) (qualifier value)",
                                "system": "http://snomed.info/sct"
                            }
                        ]
                    }
                ],
                "clinicalStatus": {
                    "coding": [
                        {
                            "code": "active",
                            "display": "Active",
                            "system": "http://terminology.hl7.org/CodeSystem/condition-clinical"
                        }
                    ]
                },
                "code": {
                    "coding": [
                        {
                            "code": "840539006",
                            "display": "Disease caused by Severe acute respiratory syndrome coronavirus 2 (disorder)",
                            "system": "http://snomed.info/sct"
                        }
                    ]
                },
                "recordedDate": "2020-11-17T10:51:04+01:00",
                "stage": [
                    {
                        "summary": {
                            "coding": [
                                {
                                    "code": "399166001",
                                    "display": "Fatal (qualifier value)",
                                    "system": "http://snomed.info/sct"
                                }
                            ],
                            "text": "Dead"
                        },
                        "type": {
                            "coding": [
                                {
                                    "code": "88859-4",
                                    "display": "Disease stage score for risk calculation",
                                    "system": "http://loinc.org"
                                }
                            ]
                        }
                    }
                ],
                "subject": {
                    "reference": "Patient/cbaf3669-a8aa-462f-a2a5-8d45c4ccb250"
                },
                "verificationStatus": {
                    "coding": [
                        {
                            "code": "confirmed",
                            "display": "Confirmed",
                            "system": "http://terminology.hl7.org/CodeSystem/condition-ver-status"
                        },
                        {
                            "code": "410605003",
                            "display": "Confirmed present (qualifier value)",
                            "system": "http://snomed.info/sct"
                        }
                    ]
                },
                "resourceType": "Condition"
            }
        },
        {
            "request": {
                "method": "PUT",
                "url": "Observation/c0bce5c6-b1fa-498d-acb8-7426901b91f5"
            },
            "resource": {
                "id": "c0bce5c6-b1fa-498d-acb8-7426901b91f5",
                "meta": {
                    "profile": [
                        "https://www.medizininformatik-initiative.de/fhir/core/modul-labor/StructureDefinition/ObservationLab"
                    ]
                },
                "category": [
                    {
                        "coding": [
                            {
                                "code": "26436-6",
                                "system": "http://loinc.org"
                            },
                            {
                                "code": "laboratory",
                                "system": "http://terminology.hl7.org/CodeSystem/observation-category"
                            }
                        ]
                    }
                ],
                "code": {
                    "coding": [
                        {
                            "code": "1988-5",
                            "display": "C reactive protein [Mass/volume] in Serum or Plasma",
                            "system": "http://loinc.org"
                        }
                    ],
                    "text": "CRP"
                },
                "effectiveDateTime": "2020-11-17T10:51:04+01:00",
                "identifier": [
                    {
                        "assigner": {
                            "reference": "Organization/Charit\u00e9"
                        },
                        "system": "https://www.charite.de/fhir/CodeSystem/lab-identifiers",
                        "type": {
                            "coding": [
                                {
                                    "code": "OBI",
                                    "system": "http://terminology.hl7.org/CodeSystem/v2-0203"
                                }
                            ]
                        },
                        "value": "1988-5_c-reactive-protein-mass-per-volume-in-serum-or-plasma"
                    }
                ],
                "status": "final",
                "subject": {
                    "reference": "Patient/cbaf3669-a8aa-462f-a2a5-8d45c4ccb250"
                },
                "valueQuantity": {
                    "code": "mg/L",
                    "system": "http://unitsofmeasure.org",
                    "unit": "mg/L",
                    "value": 2.7
                },
                "resourceType": "Observation"
            }
        },
        {
            "request": {
                "method": "PUT",
                "url": "Observation/9e323afa-bc0c-4568-bb52-8ca1882a5c46"
            },
            "resource": {
                "id": "9e323afa-bc0c-4568-bb52-8ca1882a5c46",
                "meta": {
                    "profile": [
                        "https://www.medizininformatik-initiative.de/fhir/core/modul-labor/StructureDefinition/ObservationLab"
                    ]
                },
                "category": [
                    {
                        "coding": [
                            {
                                "code": "26436-6",
                                "system": "http://loinc.org"
                            },
                            {
                                "code": "laboratory",
                                "system": "http://terminology.hl7.org/CodeSystem/observation-category"
                            }
                        ]
                    }
                ],
                "code": {
                    "coding": [
                        {
                            "code": "2276-4",
                            "display": "Ferritin [Mass/volume] in Serum or Plasma",
                            "system": "http://loinc.org"
                        }
                    ],
                    "text": "Ferritin"
                },
                "effectiveDateTime": "2020-11-17T10:51:04+01:00",
                "identifier": [
                    {
                        "assigner": {
                            "reference": "Organization/Charit\u00e9"
                        },
                        "system": "https://www.charite.de/fhir/CodeSystem/lab-identifiers",
                        "type": {
                            "coding": [
                                {
                                    "code": "OBI",
                                    "system": "http://terminology.hl7.org/CodeSystem/v2-0203"
                                }
                            ]
                        },
                        "value": "2276-4_ferritin-mass-per-volume-in-serum-or-plasma"
                    }
                ],
                "status": "final",
                "subject": {
                    "reference": "Patient/cbaf3669-a8aa-462f-a2a5-8d45c4ccb250"
                },
                "valueQuantity": {
                    "code": "ng/mL",
                    "system": "http://unitsofmeasure.org",
                    "unit": "ng/mL",
                    "value": 95.7
                },
                "resourceType": "Observation"
            }
        },
        {
            "request": {
                "method": "PUT",
                "url": "Observation/6b889c30-5ef0-4d70-8ed2-59f7eac57387"
            },
            "resource": {
                "id": "6b889c30-5ef0-4d70-8ed2-59f7eac57387",
                "meta": {
                    "profile": [
                        "https://www.medizininformatik-initiative.de/fhir/core/modul-labor/StructureDefinition/ObservationLab"
                    ]
                },
                "category": [
                    {
                        "coding": [
                            {
                                "code": "26436-6",
                                "system": "http://loinc.org"
                            },
                            {
                                "code": "laboratory",
                                "system": "http://terminology.hl7.org/CodeSystem/observation-category"
                            }
                        ]
                    }
                ],
                "code": {
                    "coding": [
                        {
                            "code": "1971-1",
                            "display": "Bilirubin.indirect [Mass/volume] in Serum or Plasma",
                            "system": "http://loinc.org"
                        }
                    ],
                    "text": "Bilirubin"
                },
                "effectiveDateTime": "2020-11-17T10:51:04+01:00",
                "identifier": [
                    {
                        "assigner": {
                            "reference": "Organization/Charit\u00e9"
                        },
                        "system": "https://www.charite.de/fhir/CodeSystem/lab-identifiers",
                        "type": {
                            "coding": [
                                {
                                    "code": "OBI",
                                    "system": "http://terminology.hl7.org/CodeSystem/v2-0203"
                                }
                            ]
                        },
                        "value": "1971-1_bilirubin.indirect-mass-per-volume-in-serum-or-plasma"
                    }
                ],
                "status": "final",
                "subject": {
                    "reference": "Patient/cbaf3669-a8aa-462f-a2a5-8d45c4ccb250"
                },
                "valueQuantity": {
                    "code": "mg/dL",
                    "system": "http://unitsofmeasure.org",
                    "unit": "mg/dL",
                    "value": 0.41
                },
                "resourceType": "Observation"
            }
        },
        {
            "request": {
                "method": "PUT",
                "url": "Observation/917bc497-d584-48c8-be69-7981ec877a0b"
            },
            "resource": {
                "id": "917bc497-d584-48c8-be69-7981ec877a0b",
                "meta": {
                    "profile": [
                        "https://www.medizininformatik-initiative.de/fhir/core/modul-labor/StructureDefinition/ObservationLab"
                    ]
                },
                "category": [
                    {
                        "coding": [
                            {
                                "code": "26436-6",
                                "system": "http://loinc.org"
                            },
                            {
                                "code": "laboratory",
                                "system": "http://terminology.hl7.org/CodeSystem/observation-category"
                            }
                        ]
                    }
                ],
                "code": {
                    "coding": [
                        {
                            "code": "48066-5",
                            "display": "Fibrin D-dimer DDU [Mass/volume] in Platelet poor plasma",
                            "system": "http://loinc.org"
                        }
                    ],
                    "text": "D-dimer"
                },
                "effectiveDateTime": "2020-11-17T10:51:04+01:00",
                "identifier": [
                    {
                        "assigner": {
                            "reference": "Organization/Charit\u00e9"
                        },
                        "system": "https://www.charite.de/fhir/CodeSystem/lab-identifiers",
                        "type": {
                            "coding": [
                                {
                                    "code": "OBI",
                                    "system": "http://terminology.hl7.org/CodeSystem/v2-0203"
                                }
                            ]
                        },
                        "value": "48066-5_fibrin-d-dimer-ddu-mass-per-volume-in-platelet-poor-plasma"
                    }
                ],
                "status": "final",
                "subject": {
                    "reference": "Patient/cbaf3669-a8aa-462f-a2a5-8d45c4ccb250"
                },
                "valueQuantity": {
                    "code": "ug/L{DDU}",
                    "system": "http://unitsofmeasure.org",
                    "unit": "ug/L{DDU}",
                    "value": 136
                },
                "resourceType": "Observation"
            }
        },
        {
            "request": {
                "method": "PUT",
                "url": "Observation/8366067e-7576-4f04-92ba-fe86886b3dce"
            },
            "resource": {
                "id": "8366067e-7576-4f04-92ba-fe86886b3dce",
                "meta": {
                    "profile": [
                        "https://www.medizininformatik-initiative.de/fhir/core/modul-labor/StructureDefinition/ObservationLab"
                    ]
                },
                "category": [
                    {
                        "coding": [
                            {
                                "code": "26436-6",
                                "system": "http://loinc.org"
                            },
                            {
                                "code": "laboratory",
                                "system": "http://terminology.hl7.org/CodeSystem/observation-category"
                            }
                        ]
                    }
                ],
                "code": {
                    "coding": [
                        {
                            "code": "2324-2",
                            "display": "Gamma glutamyl transferase [Enzymatic activity/volume] in Serum or Plasma",
                            "system": "http://loinc.org"
                        }
                    ],
                    "text": "Gamma glutamyl transferase"
                },
                "effectiveDateTime": "2020-11-17T10:51:04+01:00",
                "identifier": [
                    {
                        "assigner": {
                            "reference": "Organization/Charit\u00e9"
                        },
                        "system": "https://www.charite.de/fhir/CodeSystem/lab-identifiers",
                        "type": {
                            "coding": [
                                {
                                    "code": "OBI",
                                    "system": "http://terminology.hl7.org/CodeSystem/v2-0203"
                                }
                            ]
                        },
                        "value": "2324-2_gamma-glutamyl-transferase-enzymatic-activity-per-volume-in-serum-or-plasma"
                    }
                ],
                "status": "final",
                "subject": {
                    "reference": "Patient/cbaf3669-a8aa-462f-a2a5-8d45c4ccb250"
                },
                "valueQuantity": {
                    "code": "U/L",
                    "system": "http://unitsofmeasure.org",
                    "unit": "U/L",
                    "value": 34
                },
                "resourceType": "Observation"
            }
        },
        {
            "request": {
                "method": "PUT",
                "url": "Observation/6d0ca0a3-b47e-4121-834f-3d57ff0810c4"
            },
            "resource": {
                "id": "6d0ca0a3-b47e-4121-834f-3d57ff0810c4",
                "meta": {
                    "profile": [
                        "https://www.medizininformatik-initiative.de/fhir/core/modul-labor/StructureDefinition/ObservationLab"
                    ]
                },
                "category": [
                    {
                        "coding": [
                            {
                                "code": "26436-6",
                                "system": "http://loinc.org"
                            },
                            {
                                "code": "laboratory",
                                "system": "http://terminology.hl7.org/CodeSystem/observation-category"
                            }
                        ]
                    }
                ],
                "code": {
                    "coding": [
                        {
                            "code": "30239-8",
                            "display": "Aspartate aminotransferase [Enzymatic activity/volume] in Serum or Plasma by With P-5-P",
                            "system": "http://loinc.org"
                        }
                    ],
                    "text": "Aspartate aminotransferase"
                },
                "effectiveDateTime": "2020-11-17T10:51:04+01:00",
                "identifier": [
                    {
                        "assigner": {
                            "reference": "Organization/Charit\u00e9"
                        },
                        "system": "https://www.charite.de/fhir/CodeSystem/lab-identifiers",
                        "type": {
                            "coding": [
                                {
                                    "code": "OBI",
                                    "system": "http://terminology.hl7.org/CodeSystem/v2-0203"
                                }
                            ]
                        },
                        "value": "30239-8_aspartate-aminotransferase-enzymatic-activity-per-volume-in-serum-or-plasma-by-with-p-5-p"
                    }
                ],
                "status": "final",
                "subject": {
                    "reference": "Patient/cbaf3669-a8aa-462f-a2a5-8d45c4ccb250"
                },
                "valueQuantity": {
                    "code": "U/L",
                    "system": "http://unitsofmeasure.org",
                    "unit": "U/L",
                    "value": 10
                },
                "resourceType": "Observation"
            }
        },
        {
            "request": {
                "method": "PUT",
                "url": "Observation/0fe64f26-6ab2-4dcb-ab0f-97dd4d80c076"
            },
            "resource": {
                "id": "0fe64f26-6ab2-4dcb-ab0f-97dd4d80c076",
                "meta": {
                    "profile": [
                        "https://www.medizininformatik-initiative.de/fhir/core/modul-labor/StructureDefinition/ObservationLab"
                    ]
                },
                "category": [
                    {
                        "coding": [
                            {
                                "code": "26436-6",
                                "system": "http://loinc.org"
                            },
                            {
                                "code": "laboratory",
                                "system": "http://terminology.hl7.org/CodeSystem/observation-category"
                            }
                        ]
                    }
                ],
                "code": {
                    "coding": [
                        {
                            "code": "14804-9",
                            "display": "Lactate dehydrogenase [Enzymatic activity/volume] in Serum or Plasma by Lactate to pyruvate reaction",
                            "system": "http://loinc.org"
                        }
                    ],
                    "text": "Lactate dehydrogenase"
                },
                "effectiveDateTime": "2020-11-17T10:51:04+01:00",
                "identifier": [
                    {
                        "assigner": {
                            "reference": "Organization/Charit\u00e9"
                        },
                        "system": "https://www.charite.de/fhir/CodeSystem/lab-identifiers",
                        "type": {
                            "coding": [
                                {
                                    "code": "OBI",
                                    "system": "http://terminology.hl7.org/CodeSystem/v2-0203"
                                }
                            ]
                        },
                        "value": "14804-9_lactate-dehydrogenase-enzymatic-activity-per-volume-in-serum-or-plasma-by-lactate-to-pyruvate-reaction"
                    }
                ],
                "status": "final",
                "subject": {
                    "reference": "Patient/cbaf3669-a8aa-462f-a2a5-8d45c4ccb250"
                },
                "valueQuantity": {
                    "code": "U/L",
                    "system": "http://unitsofmeasure.org",
                    "unit": "U/L",
                    "value": 297
                },
                "resourceType": "Observation"
            }
        },
        {
            "request": {
                "method": "PUT",
                "url": "Observation/10e50710-cd36-431f-97ec-e31ae89d1ebf"
            },
            "resource": {
                "id": "10e50710-cd36-431f-97ec-e31ae89d1ebf",
                "meta": {
                    "profile": [
                        "https://www.medizininformatik-initiative.de/fhir/core/modul-labor/StructureDefinition/ObservationLab"
                    ]
                },
                "category": [
                    {
                        "coding": [
                            {
                                "code": "26436-6",
                                "system": "http://loinc.org"
                            },
                            {
                                "code": "laboratory",
                                "system": "http://terminology.hl7.org/CodeSystem/observation-category"
                            }
                        ]
                    }
                ],
                "code": {
                    "coding": [
                        {
                            "code": "67151-1",
                            "display": "Troponin T.cardiac [Mass/volume] in Serum or Plasma by High sensitivity method",
                            "system": "http://loinc.org"
                        }
                    ],
                    "text": "Cardiac troponin"
                },
                "effectiveDateTime": "2020-11-17T10:51:04+01:00",
                "identifier": [
                    {
                        "assigner": {
                            "reference": "Organization/Charit\u00e9"
                        },
                        "system": "https://www.charite.de/fhir/CodeSystem/lab-identifiers",
                        "type": {
                            "coding": [
                                {
                                    "code": "OBI",
                                    "system": "http://terminology.hl7.org/CodeSystem/v2-0203"
                                }
                            ]
                        },
                        "value": "67151-1_troponin-t.cardiac-mass-per-volume-in-serum-or-plasma-by-high-sensitivity-method"
                    }
                ],
                "status": "final",
                "subject": {
                    "reference": "Patient/cbaf3669-a8aa-462f-a2a5-8d45c4ccb250"
                },
                "valueQuantity": {
                    "code": "ng/L",
                    "system": "http://unitsofmeasure.org",
                    "unit": "ng/L",
                    "value": 8
                },
                "resourceType": "Observation"
            }
        },
        {
            "request": {
                "method": "PUT",
                "url": "Observation/bca0d385-0d5b-42c2-892e-6ee33dd4c118"
            },
            "resource": {
                "id": "bca0d385-0d5b-42c2-892e-6ee33dd4c118",
                "meta": {
                    "profile": [
                        "https://www.medizininformatik-initiative.de/fhir/core/modul-labor/StructureDefinition/ObservationLab"
                    ]
                },
                "category": [
                    {
                        "coding": [
                            {
                                "code": "26436-6",
                                "system": "http://loinc.org"
                            },
                            {
                                "code": "laboratory",
                                "system": "http://terminology.hl7.org/CodeSystem/observation-category"
                            }
                        ]
                    }
                ],
                "code": {
                    "coding": [
                        {
                            "code": "718-7",
                            "display": "Hemoglobin [Mass/volume] in Blood",
                            "system": "http://loinc.org"
                        }
                    ],
                    "text": "Hemoglobin"
                },
                "effectiveDateTime": "2020-11-17T10:51:04+01:00",
                "identifier": [
                    {
                        "assigner": {
                            "reference": "Organization/Charit\u00e9"
                        },
                        "system": "https://www.charite.de/fhir/CodeSystem/lab-identifiers",
                        "type": {
                            "coding": [
                                {
                                    "code": "OBI",
                                    "system": "http://terminology.hl7.org/CodeSystem/v2-0203"
                                }
                            ]
                        },
                        "value": "718-7_hemoglobin-mass-per-volume-in-blood"
                    }
                ],
                "status": "final",
                "subject": {
                    "reference": "Patient/cbaf3669-a8aa-462f-a2a5-8d45c4ccb250"
                },
                "valueQuantity": {
                    "code": "g/dL",
                    "system": "http://unitsofmeasure.org",
                    "unit": "g/dL",
                    "value": 12.1
                },
                "resourceType": "Observation"
            }
        },
        {
            "request": {
                "method": "PUT",
                "url": "Observation/6cf1c6ff-ec0c-49ce-b356-83436a391576"
            },
            "resource": {
                "id": "6cf1c6ff-ec0c-49ce-b356-83436a391576",
                "meta": {
                    "profile": [
                        "https://www.medizininformatik-initiative.de/fhir/core/modul-labor/StructureDefinition/ObservationLab"
                    ]
                },
                "category": [
                    {
                        "coding": [
                            {
                                "code": "26436-6",
                                "system": "http://loinc.org"
                            },
                            {
                                "code": "laboratory",
                                "system": "http://terminology.hl7.org/CodeSystem/observation-category"
                            }
                        ]
                    }
                ],
                "code": {
                    "coding": [
                        {
                            "code": "2160-0",
                            "display": "Creatinine [Mass/volume] in Serum or Plasma",
                            "system": "http://loinc.org"
                        }
                    ],
                    "text": "Creatinine"
                },
                "effectiveDateTime": "2020-11-17T10:51:04+01:00",
                "identifier": [
                    {
                        "assigner": {
                            "reference": "Organization/Charit\u00e9"
                        },
                        "system": "https://www.charite.de/fhir/CodeSystem/lab-identifiers",
                        "type": {
                            "coding": [
                                {
                                    "code": "OBI",
                                    "system": "http://terminology.hl7.org/CodeSystem/v2-0203"
                                }
                            ]
                        },
                        "value": "2160-0_creatinine-mass-per-volume-in-serum-or-plasma"
                    }
                ],
                "status": "final",
                "subject": {
                    "reference": "Patient/cbaf3669-a8aa-462f-a2a5-8d45c4ccb250"
                },
                "valueQuantity": {
                    "code": "mg/dL",
                    "system": "http://unitsofmeasure.org",
                    "unit": "mg/dL",
                    "value": 1.32
                },
                "resourceType": "Observation"
            }
        },
        {
            "request": {
                "method": "PUT",
                "url": "Observation/e3cea151-99e6-44f0-9a22-f82ac923b231"
            },
            "resource": {
                "id": "e3cea151-99e6-44f0-9a22-f82ac923b231",
                "meta": {
                    "profile": [
                        "https://www.medizininformatik-initiative.de/fhir/core/modul-labor/StructureDefinition/ObservationLab"
                    ]
                },
                "category": [
                    {
                        "coding": [
                            {
                                "code": "26436-6",
                                "system": "http://loinc.org"
                            },
                            {
                                "code": "laboratory",
                                "system": "http://terminology.hl7.org/CodeSystem/observation-category"
                            }
                        ]
                    }
                ],
                "code": {
                    "coding": [
                        {
                            "code": "2519-7",
                            "display": "Lactate [Moles/volume] in Venous blood",
                            "system": "http://loinc.org"
                        }
                    ],
                    "text": "Lactate"
                },
                "effectiveDateTime": "2020-11-17T10:51:04+01:00",
                "identifier": [
                    {
                        "assigner": {
                            "reference": "Organization/Charit\u00e9"
                        },
                        "system": "https://www.charite.de/fhir/CodeSystem/lab-identifiers",
                        "type": {
                            "coding": [
                                {
                                    "code": "OBI",
                                    "system": "http://terminology.hl7.org/CodeSystem/v2-0203"
                                }
                            ]
                        },
                        "value": "2519-7_lactate-moles-per-volume-in-venous-blood"
                    }
                ],
                "status": "final",
                "subject": {
                    "reference": "Patient/cbaf3669-a8aa-462f-a2a5-8d45c4ccb250"
                },
                "valueQuantity": {
                    "code": "mmol/L",
                    "system": "http://unitsofmeasure.org",
                    "unit": "mmol/L",
                    "value": 9.6
                },
                "resourceType": "Observation"
            }
        },
        {
            "request": {
                "method": "PUT",
                "url": "Observation/7c80e9d4-9621-41e0-aa42-e3908106a6fb"
            },
            "resource": {
                "id": "7c80e9d4-9621-41e0-aa42-e3908106a6fb",
                "meta": {
                    "profile": [
                        "https://www.medizininformatik-initiative.de/fhir/core/modul-labor/StructureDefinition/ObservationLab"
                    ]
                },
                "category": [
                    {
                        "coding": [
                            {
                                "code": "26436-6",
                                "system": "http://loinc.org"
                            },
                            {
                                "code": "laboratory",
                                "system": "http://terminology.hl7.org/CodeSystem/observation-category"
                            }
                        ]
                    }
                ],
                "code": {
                    "coding": [
                        {
                            "code": "6690-2",
                            "display": "Leukocytes [#/volume] in Blood by Automated count",
                            "system": "http://loinc.org"
                        }
                    ],
                    "text": "Leukocytes"
                },
                "effectiveDateTime": "2020-11-17T10:51:04+01:00",
                "identifier": [
                    {
                        "assigner": {
                            "reference": "Organization/Charit\u00e9"
                        },
                        "system": "https://www.charite.de/fhir/CodeSystem/lab-identifiers",
                        "type": {
                            "coding": [
                                {
                                    "code": "OBI",
                                    "system": "http://terminology.hl7.org/CodeSystem/v2-0203"
                                }
                            ]
                        },
                        "value": "6690-2_leukocytes-number-per-volume-in-blood-by-automated-count"
                    }
                ],
                "status": "final",
                "subject": {
                    "reference": "Patient/cbaf3669-a8aa-462f-a2a5-8d45c4ccb250"
                },
                "valueQuantity": {
                    "code": "10*3/uL",
                    "system": "http://unitsofmeasure.org",
                    "unit": "10*3/uL",
                    "value": 7.38
                },
                "resourceType": "Observation"
            }
        },
        {
            "request": {
                "method": "PUT",
                "url": "Observation/399404c6-a007-487d-a432-96fec03d5893"
            },
            "resource": {
                "id": "399404c6-a007-487d-a432-96fec03d5893",
                "meta": {
                    "profile": [
                        "https://www.medizininformatik-initiative.de/fhir/core/modul-labor/StructureDefinition/ObservationLab"
                    ]
                },
                "category": [
                    {
                        "coding": [
                            {
                                "code": "26436-6",
                                "system": "http://loinc.org"
                            },
                            {
                                "code": "laboratory",
                                "system": "http://terminology.hl7.org/CodeSystem/observation-category"
                            }
                        ]
                    }
                ],
                "code": {
                    "coding": [
                        {
                            "code": "731-0",
                            "display": "Lymphocytes [#/volume] in Blood by Automated count",
                            "system": "http://loinc.org"
                        }
                    ],
                    "text": "Lymphocytes"
                },
                "effectiveDateTime": "2020-11-17T10:51:04+01:00",
                "identifier": [
                    {
                        "assigner": {
                            "reference": "Organization/Charit\u00e9"
                        },
                        "system": "https://www.charite.de/fhir/CodeSystem/lab-identifiers",
                        "type": {
                            "coding": [
                                {
                                    "code": "OBI",
                                    "system": "http://terminology.hl7.org/CodeSystem/v2-0203"
                                }
                            ]
                        },
                        "value": "731-0_lymphocytes-number-per-volume-in-blood-by-automated-count"
                    }
                ],
                "status": "final",
                "subject": {
                    "reference": "Patient/cbaf3669-a8aa-462f-a2a5-8d45c4ccb250"
                },
                "valueQuantity": {
                    "code": "10*3/uL",
                    "system": "http://unitsofmeasure.org",
                    "unit": "10*3/uL",
                    "value": 1.78
                },
                "resourceType": "Observation"
            }
        },
        {
            "request": {
                "method": "PUT",
                "url": "Observation/0692f35c-446d-408c-8f30-24014b7caf02"
            },
            "resource": {
                "id": "0692f35c-446d-408c-8f30-24014b7caf02",
                "meta": {
                    "profile": [
                        "https://www.medizininformatik-initiative.de/fhir/core/modul-labor/StructureDefinition/ObservationLab"
                    ]
                },
                "category": [
                    {
                        "coding": [
                            {
                                "code": "26436-6",
                                "system": "http://loinc.org"
                            },
                            {
                                "code": "laboratory",
                                "system": "http://terminology.hl7.org/CodeSystem/observation-category"
                            }
                        ]
                    }
                ],
                "code": {
                    "coding": [
                        {
                            "code": "751-8",
                            "display": "Neutrophils [#/volume] in Blood by Automated count",
                            "system": "http://loinc.org"
                        }
                    ],
                    "text": "Neutrophils"
                },
                "effectiveDateTime": "2020-11-17T10:51:04+01:00",
                "identifier": [
                    {
                        "assigner": {
                            "reference": "Organization/Charit\u00e9"
                        },
                        "system": "https://www.charite.de/fhir/CodeSystem/lab-identifiers",
                        "type": {
                            "coding": [
                                {
                                    "code": "OBI",
                                    "system": "http://terminology.hl7.org/CodeSystem/v2-0203"
                                }
                            ]
                        },
                        "value": "751-8_neutrophils-number-per-volume-in-blood-by-automated-count"
                    }
                ],
                "status": "final",
                "subject": {
                    "reference": "Patient/cbaf3669-a8aa-462f-a2a5-8d45c4ccb250"
                },
                "valueQuantity": {
                    "code": "10*3/uL",
                    "system": "http://unitsofmeasure.org",
                    "unit": "10*3/uL",
                    "value": 7.7
                },
                "resourceType": "Observation"
            }
        },
        {
            "request": {
                "method": "PUT",
                "url": "Observation/6c1e2b41-0f9b-42fe-b0af-d70b834e7838"
            },
            "resource": {
                "id": "6c1e2b41-0f9b-42fe-b0af-d70b834e7838",
                "meta": {
                    "profile": [
                        "https://www.netzwerk-universitaetsmedizin.de/fhir/StructureDefinition/sars-cov-2-rt-pcr"
                    ]
                },
                "category": [
                    {
                        "coding": [
                            {
                                "code": "26436-6",
                                "system": "http://loinc.org"
                            },
                            {
                                "code": "laboratory",
                                "system": "http://terminology.hl7.org/CodeSystem/observation-category"
                            }
                        ]
                    }
                ],
                "code": {
                    "coding": [
                        {
                            "code": "94500-6",
                            "display": "SARS-CoV-2 (COVID-19) RNA [Presence] in Respiratory specimen by NAA with probe detection",
                            "system": "http://loinc.org"
                        }
                    ],
                    "text": "SARS-CoV-2-RNA (PCR)"
                },
                "effectiveDateTime": "2020-11-17T10:51:04+01:00",
                "identifier": [
                    {
                        "assigner": {
                            "reference": "Organization/Charit\u00e9"
                        },
                        "system": "https://www.charite.de/fhir/CodeSystem/lab-identifiers",
                        "type": {
                            "coding": [
                                {
                                    "code": "OBI",
                                    "system": "http://terminology.hl7.org/CodeSystem/v2-0203"
                                }
                            ]
                        },
                        "value": "94500-6_SARS-CoV-2-RNA-Presence-in-Respiratory-specimen"
                    }
                ],
                "status": "final",
                "subject": {
                    "reference": "Patient/cbaf3669-a8aa-462f-a2a5-8d45c4ccb250"
                },
                "valueCodeableConcept": {
                    "coding": [
                        {
                            "code": "260373001",
                            "display": "Detected (qualifier value)",
                            "system": "http://snomed.info/sct"
                        }
                    ],
                    "text": "SARS-CoV-2-RNA positiv"
                },
                "resourceType": "Observation"
            }
        },
        {
            "request": {
                "method": "PUT",
                "url": "Observation/43504b95-4035-4af4-897d-bd135749e60d"
            },
            "resource": {
                "id": "43504b95-4035-4af4-897d-bd135749e60d",
                "meta": {
                    "profile": [
                        "https://www.netzwerk-universitaetsmedizin.de/fhir/StructureDefinition/sars-cov-2-ab-ser-pl-ql-ia"
                    ]
                },
                "category": [
                    {
                        "coding": [
                            {
                                "code": "26436-6",
                                "system": "http://loinc.org"
                            },
                            {
                                "code": "laboratory",
                                "system": "http://terminology.hl7.org/CodeSystem/observation-category"
                            }
                        ]
                    }
                ],
                "code": {
                    "coding": [
                        {
                            "code": "94762-2",
                            "display": "SARS-CoV-2 (COVID-19) Ab [Presence] in Serum or Plasma by Immunoassay",
                            "system": "http://loinc.org"
                        }
                    ],
                    "text": "SARS-CoV-2 antibodies qualitative"
                },
                "effectiveDateTime": "2020-11-17T10:51:04+01:00",
                "identifier": [
                    {
                        "assigner": {
                            "reference": "Organization/Charit\u00e9"
                        },
                        "system": "https://www.charite.de/fhir/CodeSystem/lab-identifiers",
                        "type": {
                            "coding": [
                                {
                                    "code": "OBI",
                                    "system": "http://terminology.hl7.org/CodeSystem/v2-0203"
                                }
                            ]
                        },
                        "value": "94762-2_SARS-CoV-2-Ab-Ql"
                    }
                ],
                "status": "final",
                "subject": {
                    "reference": "Patient/cbaf3669-a8aa-462f-a2a5-8d45c4ccb250"
                },
                "valueCodeableConcept": {
                    "coding": [
                        {
                            "code": "260415000",
                            "display": "Not detected (qualifier value)",
                            "system": "http://snomed.info/sct"
                        }
                    ]
                },
                "resourceType": "Observation"
            }
        },
        {
            "request": {
                "method": "PUT",
                "url": "Observation/2a387757-3698-456c-a754-9e6e7bc2d7ce"
            },
            "resource": {
                "id": "2a387757-3698-456c-a754-9e6e7bc2d7ce",
                "meta": {
                    "profile": [
                        "https://www.netzwerk-universitaetsmedizin.de/fhir/StructureDefinition/sars-cov-2-iga-ser-pl-ql-ia"
                    ]
                },
                "category": [
                    {
                        "coding": [
                            {
                                "code": "26436-6",
                                "system": "http://loinc.org"
                            },
                            {
                                "code": "laboratory",
                                "system": "http://terminology.hl7.org/CodeSystem/observation-category"
                            }
                        ]
                    }
                ],
                "code": {
                    "coding": [
                        {
                            "code": "94562-6",
                            "display": "SARS-CoV-2 (COVID-19) IgA Ab [Presence] in Serum or Plasma by Immunoassay",
                            "system": "http://loinc.org"
                        }
                    ],
                    "text": "SARS-CoV-2 IgA antibodies qualitative"
                },
                "effectiveDateTime": "2020-11-17T10:51:04+01:00",
                "identifier": [
                    {
                        "assigner": {
                            "reference": "Organization/Charit\u00e9"
                        },
                        "system": "https://www.charite.de/fhir/CodeSystem/lab-identifiers",
                        "type": {
                            "coding": [
                                {
                                    "code": "OBI",
                                    "system": "http://terminology.hl7.org/CodeSystem/v2-0203"
                                }
                            ]
                        },
                        "value": "94562-6_SARS-CoV-2-IgA-Ql"
                    }
                ],
                "status": "final",
                "subject": {
                    "reference": "Patient/cbaf3669-a8aa-462f-a2a5-8d45c4ccb250"
                },
                "valueCodeableConcept": {
                    "coding": [
                        {
                            "code": "260373001",
                            "display": "Detected (qualifier value)",
                            "system": "http://snomed.info/sct"
                        }
                    ]
                },
                "resourceType": "Observation"
            }
        },
        {
            "request": {
                "method": "PUT",
                "url": "Observation/1a1fe6de-d713-4de2-84dd-d194e433a6d8"
            },
            "resource": {
                "id": "1a1fe6de-d713-4de2-84dd-d194e433a6d8",
                "meta": {
                    "profile": [
                        "https://www.netzwerk-universitaetsmedizin.de/fhir/StructureDefinition/sars-cov-2-igg-ser-pl-ql-ia"
                    ]
                },
                "category": [
                    {
                        "coding": [
                            {
                                "code": "26436-6",
                                "system": "http://loinc.org"
                            },
                            {
                                "code": "laboratory",
                                "system": "http://terminology.hl7.org/CodeSystem/observation-category"
                            }
                        ]
                    }
                ],
                "code": {
                    "coding": [
                        {
                            "code": "94563-4",
                            "display": "SARS-CoV-2 (COVID-19) IgG Ab [Presence] in Serum or Plasma by Immunoassay",
                            "system": "http://loinc.org"
                        }
                    ],
                    "text": "SARS-CoV-2 IgG antibodies qualitative"
                },
                "effectiveDateTime": "2020-11-17T10:51:04+01:00",
                "identifier": [
                    {
                        "assigner": {
                            "reference": "Organization/Charit\u00e9"
                        },
                        "system": "https://www.charite.de/fhir/CodeSystem/lab-identifiers",
                        "type": {
                            "coding": [
                                {
                                    "code": "OBI",
                                    "system": "http://terminology.hl7.org/CodeSystem/v2-0203"
                                }
                            ]
                        },
                        "value": "94563-4_SARS-CoV-2-IgG-Ql"
                    }
                ],
                "status": "final",
                "subject": {
                    "reference": "Patient/cbaf3669-a8aa-462f-a2a5-8d45c4ccb250"
                },
                "valueCodeableConcept": {
                    "coding": [
                        {
                            "code": "260415000",
                            "display": "Not detected (qualifier value)",
                            "system": "http://snomed.info/sct"
                        }
                    ]
                },
                "resourceType": "Observation"
            }
        },
        {
            "request": {
                "method": "PUT",
                "url": "Observation/e7657b53-f2df-4398-8996-8fd107dfa90b"
            },
            "resource": {
                "id": "e7657b53-f2df-4398-8996-8fd107dfa90b",
                "meta": {
                    "profile": [
                        "https://www.netzwerk-universitaetsmedizin.de/fhir/StructureDefinition/sars-cov-2-igm-ser-pl-ql-ia"
                    ]
                },
                "category": [
                    {
                        "coding": [
                            {
                                "code": "26436-6",
                                "system": "http://loinc.org"
                            },
                            {
                                "code": "laboratory",
                                "system": "http://terminology.hl7.org/CodeSystem/observation-category"
                            }
                        ]
                    }
                ],
                "code": {
                    "coding": [
                        {
                            "code": "94564-2",
                            "display": "SARS-CoV-2 (COVID-19) IgM Ab [Presence] in Serum or Plasma by Immunoassay",
                            "system": "http://loinc.org"
                        }
                    ],
                    "text": "SARS-CoV-2 IgM antibodies qualitative"
                },
                "effectiveDateTime": "2020-11-17T10:51:04+01:00",
                "identifier": [
                    {
                        "assigner": {
                            "reference": "Organization/Charit\u00e9"
                        },
                        "system": "https://www.charite.de/fhir/CodeSystem/lab-identifiers",
                        "type": {
                            "coding": [
                                {
                                    "code": "OBI",
                                    "system": "http://terminology.hl7.org/CodeSystem/v2-0203"
                                }
                            ]
                        },
                        "value": "94564-2_SARS-CoV-2-IgM-Ql"
                    }
                ],
                "status": "final",
                "subject": {
                    "reference": "Patient/cbaf3669-a8aa-462f-a2a5-8d45c4ccb250"
                },
                "valueCodeableConcept": {
                    "coding": [
                        {
                            "code": "419984006",
                            "display": "\tInconclusive (qualifier value)",
                            "system": "http://snomed.info/sct"
                        }
                    ]
                },
                "resourceType": "Observation"
            }
        },
        {
            "request": {
                "method": "PUT",
                "url": "Observation/bf4dcef8-dbb4-4a4f-9235-1a3a4a38ba58"
            },
            "resource": {
                "id": "bf4dcef8-dbb4-4a4f-9235-1a3a4a38ba58",
                "meta": {
                    "profile": [
                        "https://www.netzwerk-universitaetsmedizin.de/fhir/StructureDefinition/sars-cov-2-ab-pnl-ser-pl-ia"
                    ]
                },
                "category": [
                    {
                        "coding": [
                            {
                                "code": "26436-6",
                                "system": "http://loinc.org"
                            },
                            {
                                "code": "laboratory",
                                "system": "http://terminology.hl7.org/CodeSystem/observation-category"
                            }
                        ]
                    }
                ],
                "code": {
                    "coding": [
                        {
                            "code": "94504-8",
                            "display": "SARS-CoV-2 (COVID-19) Ab panel - Serum or Plasma by Immunoassay",
                            "system": "http://loinc.org"
                        }
                    ],
                    "text": "SARS-CoV-2 antibodies panel"
                },
                "effectiveDateTime": "2020-11-17T10:51:04+01:00",
                "hasMember": [
                    {
                        "reference": "Observation/43504b95-4035-4af4-897d-bd135749e60d"
                    },
                    {
                        "reference": "Observation/2a387757-3698-456c-a754-9e6e7bc2d7ce"
                    },
                    {
                        "reference": "Observation/1a1fe6de-d713-4de2-84dd-d194e433a6d8"
                    },
                    {
                        "reference": "Observation/e7657b53-f2df-4398-8996-8fd107dfa90b"
                    }
                ],
                "identifier": [
                    {
                        "assigner": {
                            "reference": "Organization/Charit\u00e9"
                        },
                        "system": "https://www.charite.de/fhir/CodeSystem/lab-identifiers",
                        "type": {
                            "coding": [
                                {
                                    "code": "OBI",
                                    "system": "http://terminology.hl7.org/CodeSystem/v2-0203"
                                }
                            ]
                        },
                        "value": "94504-8_SARS-CoV-2-Ab-Panel"
                    }
                ],
                "status": "final",
                "subject": {
                    "reference": "Patient/cbaf3669-a8aa-462f-a2a5-8d45c4ccb250"
                },
                "resourceType": "Observation"
            }
        },
        {
            "request": {
                "method": "POST",
                "url": "MedicationStatement"
            },
            "resource": {
                "id": "0c5091b7-074b-46a1-9d40-a9352d686808",
                "meta": {
                    "profile": [
                        "https://www.netzwerk-universitaetsmedizin.de/fhir/StructureDefinition/pharmacological-therapy"
                    ]
                },
                "effectiveDateTime": "2020-11-17T10:51:04+01:00",
                "medicationCodeableConcept": {
                    "coding": [
                        {
                            "code": "764877006",
                            "display": "Product containing zinc (medicinal product)",
                            "system": "http://snomed.info/sct"
                        },
                        {
                            "code": "A12CB",
                            "display": "Zink",
                            "system": "http://fhir.de/CodeSystem/dimdi/atc"
                        }
                    ],
                    "text": "Zink"
                },
                "status": "active",
                "subject": {
                    "reference": "Patient/cbaf3669-a8aa-462f-a2a5-8d45c4ccb250"
                },
                "resourceType": "MedicationStatement"
            }
        },
        {
            "request": {
                "method": "POST",
                "url": "MedicationStatement"
            },
            "resource": {
                "id": "10125a0f-d621-4bbc-b495-ae87ee43eee7",
                "meta": {
                    "profile": [
                        "https://www.netzwerk-universitaetsmedizin.de/fhir/StructureDefinition/pharmacological-therapy-ace-inhibitors"
                    ]
                },
                "effectiveDateTime": "2020-11-17T10:51:04+01:00",
                "medicationCodeableConcept": {
                    "coding": [
                        {
                            "code": "41549009",
                            "display": "Product containing angiotensin-converting enzyme inhibitor (product)",
                            "system": "http://snomed.info/sct"
                        },
                        {
                            "code": "C09A",
                            "display": "ACE-HEMMER, REIN",
                            "system": "http://fhir.de/CodeSystem/dimdi/atc"
                        }
                    ],
                    "text": "ACE inhibitors"
                },
                "status": "active",
                "subject": {
                    "reference": "Patient/cbaf3669-a8aa-462f-a2a5-8d45c4ccb250"
                },
                "resourceType": "MedicationStatement"
            }
        },
        {
            "request": {
                "method": "POST",
                "url": "MedicationStatement"
            },
            "resource": {
                "id": "0b3b811e-6800-4a44-a8a4-3d752a19fb50",
                "meta": {
                    "profile": [
                        "https://www.netzwerk-universitaetsmedizin.de/fhir/StructureDefinition/pharmacological-therapy-immunoglobulins"
                    ]
                },
                "effectiveDateTime": "2020-11-17T10:51:04+01:00",
                "medicationCodeableConcept": {
                    "coding": [
                        {
                            "code": "333710000",
                            "display": "Product containing immunoglobulin (product)",
                            "system": "http://snomed.info/sct"
                        },
                        {
                            "code": "J06B",
                            "display": "IMMUNGLOBULINE",
                            "system": "http://fhir.de/CodeSystem/dimdi/atc"
                        }
                    ],
                    "text": "immunoglobulins"
                },
                "status": "active",
                "subject": {
                    "reference": "Patient/cbaf3669-a8aa-462f-a2a5-8d45c4ccb250"
                },
                "resourceType": "MedicationStatement"
            }
        },
        {
            "request": {
                "method": "POST",
                "url": "MedicationStatement"
            },
            "resource": {
                "id": "f34b5aac-ba71-4c9b-8f15-cb7e993d068d",
                "meta": {
                    "profile": [
                        "https://www.netzwerk-universitaetsmedizin.de/fhir/StructureDefinition/pharmacological-therapy-anticoagulants"
                    ]
                },
                "effectiveDateTime": "2020-11-17T10:51:04+01:00",
                "medicationCodeableConcept": {
                    "coding": [
                        {
                            "code": "108992003",
                            "display": "Product containing danaparoid (medicinal product)",
                            "system": "http://snomed.info/sct"
                        },
                        {
                            "code": "B01AB09",
                            "display": "Danaparoid",
                            "system": "http://fhir.de/CodeSystem/dimdi/atc"
                        }
                    ],
                    "text": "Danaparoid"
                },
                "reasonCode": [
                    {
                        "coding": [
                            {
                                "code": "360271000",
                                "display": "Prophylaxis - procedure intent (qualifier value)",
                                "system": "http://snomed.info/sct"
                            }
                        ]
                    }
                ],
                "status": "active",
                "subject": {
                    "reference": "Patient/cbaf3669-a8aa-462f-a2a5-8d45c4ccb250"
                },
                "resourceType": "MedicationStatement"
            }
        },
        {
            "request": {
                "method": "POST",
                "url": "Condition"
            },
            "resource": {
                "id": "98e6c1fb-e786-434c-b8a0-0fef9c24591c",
                "meta": {
                    "profile": [
                        "https://www.netzwerk-universitaetsmedizin.de/fhir/StructureDefinition/dependence-on-ventilator"
                    ]
                },
                "category": [
                    {
                        "coding": [
                            {
                                "code": "404989005",
                                "display": "Ventilation status (observable entity)",
                                "system": "http://snomed.info/sct"
                            }
                        ]
                    }
                ],
                "clinicalStatus": {
                    "coding": [
                        {
                            "code": "active",
                            "display": "Active",
                            "system": "http://terminology.hl7.org/CodeSystem/condition-clinical"
                        }
                    ]
                },
                "code": {
                    "coding": [
                        {
                            "code": "444932008",
                            "display": "Dependence on ventilator (finding)",
                            "system": "http://snomed.info/sct"
                        }
                    ]
                },
                "recordedDate": "2020-11-17T10:51:04+01:00",
                "subject": {
                    "reference": "Patient/cbaf3669-a8aa-462f-a2a5-8d45c4ccb250"
                },
                "verificationStatus": {
                    "coding": [
                        {
                            "code": "confirmed",
                            "display": "Confirmed",
                            "system": "http://terminology.hl7.org/CodeSystem/condition-ver-status"
                        },
                        {
                            "code": "410605003",
                            "display": "Confirmed present (qualifier value)",
                            "system": "http://snomed.info/sct"
                        }
                    ]
                },
                "resourceType": "Condition"
            }
        },
        {
            "request": {
                "method": "PUT",
                "url": "Observation/7c1db2ab-06fa-473d-984a-61c61856d62c"
            },
            "resource": {
                "id": "7c1db2ab-06fa-473d-984a-61c61856d62c",
                "meta": {
                    "profile": [
                        "https://www.netzwerk-universitaetsmedizin.de/fhir/StructureDefinition/discharge-disposition"
                    ]
                },
                "category": [
                    {
                        "coding": [
                            {
                                "code": "social-history",
                                "system": "http://terminology.hl7.org/CodeSystem/observation-category"
                            }
                        ]
                    }
                ],
                "code": {
                    "coding": [
                        {
                            "code": "55128-3",
                            "display": "Discharge disposition",
                            "system": "http://loinc.org"
                        }
                    ],
                    "text": "Type of discharge"
                },
                "effectiveDateTime": "2020-11-17T10:51:04+01:00",
                "identifier": [
                    {
                        "assigner": {
                            "reference": "Organization/Charit\u00e9"
                        },
                        "system": "https://www.charite.de/fhir/CodeSystem/observation-identifiers",
                        "type": {
                            "coding": [
                                {
                                    "code": "OBI",
                                    "system": "http://terminology.hl7.org/CodeSystem/v2-0203"
                                }
                            ]
                        },
                        "value": "55128-3_DischargeDisposition"
                    }
                ],
                "status": "final",
                "subject": {
                    "reference": "Patient/cbaf3669-a8aa-462f-a2a5-8d45c4ccb250"
                },
                "valueCodeableConcept": {
                    "coding": [
                        {
                            "code": "261665006",
                            "display": "Unknown (qualifier value)",
                            "system": "http://snomed.info/sct"
                        }
                    ]
                },
                "resourceType": "Observation"
            }
        },
        {
            "request": {
                "method": "PUT",
                "url": "Observation/edbb4472-2a08-4783-be9c-72d53db0d5b8"
            },
            "resource": {
                "id": "edbb4472-2a08-4783-be9c-72d53db0d5b8",
                "meta": {
                    "profile": [
                        "https://www.netzwerk-universitaetsmedizin.de/fhir/StructureDefinition/study-inclusion-covid-19"
                    ]
                },
                "category": [
                    {
                        "coding": [
                            {
                                "code": "survey",
                                "system": "http://terminology.hl7.org/CodeSystem/observation-category"
                            }
                        ]
                    }
                ],
                "code": {
                    "coding": [
                        {
                            "code": "02",
                            "display": "Study inclusion due to Covid-19",
                            "system": "https://www.netzwerk-universitaetsmedizin.de/fhir/CodeSystem/ecrf-parameter-codes"
                        }
                    ],
                    "text": "Confirmed Covid-19 diagnosis as main reason for enrolment in the study"
                },
                "effectiveDateTime": "2020-11-17T10:51:04+01:00",
                "identifier": [
                    {
                        "assigner": {
                            "reference": "Organization/Charit\u00e9"
                        },
                        "system": "https://www.charite.de/fhir/CodeSystem/observation-identifiers",
                        "type": {
                            "coding": [
                                {
                                    "code": "OBI",
                                    "system": "http://terminology.hl7.org/CodeSystem/v2-0203"
                                }
                            ]
                        },
                        "value": "ecrf_02_StudyInclusionCovid19"
                    }
                ],
                "status": "final",
                "subject": {
                    "reference": "Patient/cbaf3669-a8aa-462f-a2a5-8d45c4ccb250"
                },
                "valueCodeableConcept": {
                    "coding": [
                        {
                            "code": "373066001",
                            "display": "Yes (qualifier value)",
                            "system": "http://snomed.info/sct"
                        }
                    ],
                    "text": "Covid-19 as primary reason for study inclusion"
                },
                "resourceType": "Observation"
            }
        },
        {
            "request": {
                "method": "PUT",
                "url": "Observation/74ee1dcb-5102-4e77-a80b-5da05eebec59"
            },
            "resource": {
                "id": "74ee1dcb-5102-4e77-a80b-5da05eebec59",
                "meta": {
                    "profile": [
                        "https://www.netzwerk-universitaetsmedizin.de/fhir/StructureDefinition/interventional-clinical-trial-participation"
                    ]
                },
                "category": [
                    {
                        "coding": [
                            {
                                "code": "survey",
                                "system": "http://terminology.hl7.org/CodeSystem/observation-category"
                            }
                        ]
                    }
                ],
                "code": {
                    "coding": [
                        {
                            "code": "03",
                            "display": "Participation in interventional clinical trials",
                            "system": "https://www.netzwerk-universitaetsmedizin.de/fhir/CodeSystem/ecrf-parameter-codes"
                        }
                    ],
                    "text": "Has the patient participated in one or more interventional clinical trials?"
                },
                "effectiveDateTime": "2020-11-17T10:51:04+01:00",
                "identifier": [
                    {
                        "assigner": {
                            "reference": "Organization/Charit\u00e9"
                        },
                        "system": "https://www.charite.de/fhir/CodeSystem/observation-identifiers",
                        "type": {
                            "coding": [
                                {
                                    "code": "OBI",
                                    "system": "http://terminology.hl7.org/CodeSystem/v2-0203"
                                }
                            ]
                        },
                        "value": "ecrf_03_InterventionalClinicalTrialsParticipation"
                    }
                ],
                "status": "final",
                "subject": {
                    "reference": "Patient/cbaf3669-a8aa-462f-a2a5-8d45c4ccb250"
                },
                "valueCodeableConcept": {
                    "coding": [
                        {
                            "code": "373067005",
                            "display": "No (qualifier value)",
                            "system": "http://snomed.info/sct"
                        }
                    ],
                    "text": "Patient is not enrolled in other studies"
                },
                "resourceType": "Observation"
            }
        },
        {
            "request": {
                "method": "POST",
                "url": "Condition"
            },
            "resource": {
                "id": "a036d70b-429e-4eff-aab6-ef03b65adf55",
                "meta": {
                    "profile": [
                        "https://www.netzwerk-universitaetsmedizin.de/fhir/StructureDefinition/symptoms-covid-19"
                    ]
                },
                "extension": [
                    {
                        "url": "https://www.netzwerk-universitaetsmedizin.de/fhir/StructureDefinition/uncertainty-of-presence",
                        "valueCodeableConcept": {
                            "coding": [
                                {
                                    "code": "261665006",
                                    "display": "Unknown (qualifier value)",
                                    "system": "http://snomed.info/sct"
                                }
                            ],
                            "text": "Presence of symptom is unknown."
                        }
                    }
                ],
                "category": [
                    {
                        "coding": [
                            {
                                "code": "75325-1",
                                "display": "Symptom",
                                "system": "http://loinc.org"
                            }
                        ]
                    }
                ],
                "code": {
                    "coding": [
                        {
                            "code": "36955009",
                            "display": "Loss of taste (finding)",
                            "system": "http://snomed.info/sct"
                        }
                    ]
                },
                "recordedDate": "2020-11-17T10:51:04+01:00",
                "subject": {
                    "reference": "Patient/cbaf3669-a8aa-462f-a2a5-8d45c4ccb250"
                },
                "resourceType": "Condition"
            }
        },
        {
            "request": {
                "method": "POST",
                "url": "Condition"
            },
            "resource": {
                "id": "bc2ebedd-6b29-477d-83f4-babe042e2243",
                "meta": {
                    "profile": [
                        "https://www.netzwerk-universitaetsmedizin.de/fhir/StructureDefinition/symptoms-covid-19"
                    ]
                },
                "extension": [
                    {
                        "url": "https://www.netzwerk-universitaetsmedizin.de/fhir/StructureDefinition/uncertainty-of-presence",
                        "valueCodeableConcept": {
                            "coding": [
                                {
                                    "code": "261665006",
                                    "display": "Unknown (qualifier value)",
                                    "system": "http://snomed.info/sct"
                                }
                            ],
                            "text": "Presence of symptom is unknown."
                        }
                    }
                ],
                "category": [
                    {
                        "coding": [
                            {
                                "code": "75325-1",
                                "display": "Symptom",
                                "system": "http://loinc.org"
                            }
                        ]
                    }
                ],
                "code": {
                    "coding": [
                        {
                            "code": "21522001",
                            "display": "Abdominal pain (finding)",
                            "system": "http://snomed.info/sct"
                        }
                    ]
                },
                "recordedDate": "2020-11-17T10:51:04+01:00",
                "subject": {
                    "reference": "Patient/cbaf3669-a8aa-462f-a2a5-8d45c4ccb250"
                },
                "resourceType": "Condition"
            }
        },
        {
            "request": {
                "method": "POST",
                "url": "Condition"
            },
            "resource": {
                "id": "b2efc050-3466-4ae3-8134-18ad8ebfbff4",
                "meta": {
                    "profile": [
                        "https://www.netzwerk-universitaetsmedizin.de/fhir/StructureDefinition/symptoms-covid-19"
                    ]
                },
                "category": [
                    {
                        "coding": [
                            {
                                "code": "75325-1",
                                "display": "Symptom",
                                "system": "http://loinc.org"
                            }
                        ]
                    }
                ],
                "code": {
                    "coding": [
                        {
                            "code": "40917007",
                            "display": "Clouded consciousness (finding)",
                            "system": "http://snomed.info/sct"
                        }
                    ]
                },
                "recordedDate": "2020-11-17T10:51:04+01:00",
                "subject": {
                    "reference": "Patient/cbaf3669-a8aa-462f-a2a5-8d45c4ccb250"
                },
                "verificationStatus": {
                    "coding": [
                        {
                            "code": "refuted",
                            "display": "Refuted",
                            "system": "http://terminology.hl7.org/CodeSystem/condition-ver-status"
                        },
                        {
                            "code": "410594000",
                            "display": "Definitely NOT present (qualifier value)",
                            "system": "http://snomed.info/sct"
                        }
                    ]
                },
                "resourceType": "Condition"
            }
        },
        {
            "request": {
                "method": "POST",
                "url": "Condition"
            },
            "resource": {
                "id": "d3b16167-ba7a-4699-bc31-ba735948b7a5",
                "meta": {
                    "profile": [
                        "https://www.netzwerk-universitaetsmedizin.de/fhir/StructureDefinition/symptoms-covid-19"
                    ]
                },
                "extension": [
                    {
                        "url": "https://www.netzwerk-universitaetsmedizin.de/fhir/StructureDefinition/uncertainty-of-presence",
                        "valueCodeableConcept": {
                            "coding": [
                                {
                                    "code": "261665006",
                                    "display": "Unknown (qualifier value)",
                                    "system": "http://snomed.info/sct"
                                }
                            ],
                            "text": "Presence of symptom is unknown."
                        }
                    }
                ],
                "category": [
                    {
                        "coding": [
                            {
                                "code": "75325-1",
                                "display": "Symptom",
                                "system": "http://loinc.org"
                            }
                        ]
                    }
                ],
                "code": {
                    "coding": [
                        {
                            "code": "62315008",
                            "display": "Diarrhea (finding)",
                            "system": "http://snomed.info/sct"
                        }
                    ]
                },
                "recordedDate": "2020-11-17T10:51:04+01:00",
                "subject": {
                    "reference": "Patient/cbaf3669-a8aa-462f-a2a5-8d45c4ccb250"
                },
                "resourceType": "Condition"
            }
        },
        {
            "request": {
                "method": "POST",
                "url": "Condition"
            },
            "resource": {
                "id": "1a8067fa-55e5-47aa-b7fd-28af20f4b1b2",
                "meta": {
                    "profile": [
                        "https://www.netzwerk-universitaetsmedizin.de/fhir/StructureDefinition/symptoms-covid-19"
                    ]
                },
                "category": [
                    {
                        "coding": [
                            {
                                "code": "75325-1",
                                "display": "Symptom",
                                "system": "http://loinc.org"
                            }
                        ]
                    }
                ],
                "code": {
                    "coding": [
                        {
                            "code": "422400008",
                            "display": "Vomiting (disorder)",
                            "system": "http://snomed.info/sct"
                        }
                    ]
                },
                "recordedDate": "2020-11-17T10:51:04+01:00",
                "subject": {
                    "reference": "Patient/cbaf3669-a8aa-462f-a2a5-8d45c4ccb250"
                },
                "verificationStatus": {
                    "coding": [
                        {
                            "code": "refuted",
                            "display": "Refuted",
                            "system": "http://terminology.hl7.org/CodeSystem/condition-ver-status"
                        },
                        {
                            "code": "410594000",
                            "display": "Definitely NOT present (qualifier value)",
                            "system": "http://snomed.info/sct"
                        }
                    ]
                },
                "resourceType": "Condition"
            }
        },
        {
            "request": {
                "method": "POST",
                "url": "Condition"
            },
            "resource": {
                "id": "629ceafe-9fd3-4b8a-a598-efc17b1cac6e",
                "meta": {
                    "profile": [
                        "https://www.netzwerk-universitaetsmedizin.de/fhir/StructureDefinition/symptoms-covid-19"
                    ]
                },
                "category": [
                    {
                        "coding": [
                            {
                                "code": "75325-1",
                                "display": "Symptom",
                                "system": "http://loinc.org"
                            }
                        ]
                    }
                ],
                "clinicalStatus": {
                    "coding": [
                        {
                            "code": "active",
                            "display": "Active",
                            "system": "http://terminology.hl7.org/CodeSystem/condition-clinical"
                        }
                    ]
                },
                "code": {
                    "coding": [
                        {
                            "code": "49727002",
                            "display": "Cough (finding)",
                            "system": "http://snomed.info/sct"
                        }
                    ]
                },
                "recordedDate": "2020-11-17T10:51:04+01:00",
                "severity": {
                    "coding": [
                        {
                            "code": "255604002",
                            "display": "Mild (qualifier value)",
                            "system": "http://snomed.info/sct"
                        }
                    ]
                },
                "subject": {
                    "reference": "Patient/cbaf3669-a8aa-462f-a2a5-8d45c4ccb250"
                },
                "verificationStatus": {
                    "coding": [
                        {
                            "code": "confirmed",
                            "display": "Confirmed",
                            "system": "http://terminology.hl7.org/CodeSystem/condition-ver-status"
                        },
                        {
                            "code": "410605003",
                            "display": "Confirmed present (qualifier value)",
                            "system": "http://snomed.info/sct"
                        }
                    ]
                },
                "resourceType": "Condition"
            }
        },
        {
            "request": {
                "method": "POST",
                "url": "Condition"
            },
            "resource": {
                "id": "3b1928d8-acbc-4cec-a6ba-c28fd5e44c0c",
                "meta": {
                    "profile": [
                        "https://www.netzwerk-universitaetsmedizin.de/fhir/StructureDefinition/symptoms-covid-19"
                    ]
                },
                "category": [
                    {
                        "coding": [
                            {
                                "code": "75325-1",
                                "display": "Symptom",
                                "system": "http://loinc.org"
                            }
                        ]
                    }
                ],
                "clinicalStatus": {
                    "coding": [
                        {
                            "code": "active",
                            "display": "Active",
                            "system": "http://terminology.hl7.org/CodeSystem/condition-clinical"
                        }
                    ]
                },
                "code": {
                    "coding": [
                        {
                            "code": "267036007",
                            "display": "Dyspnea (finding)",
                            "system": "http://snomed.info/sct"
                        }
                    ]
                },
                "recordedDate": "2020-11-17T10:51:04+01:00",
                "severity": {
                    "coding": [
                        {
                            "code": "6736007",
                            "display": "Moderate (severity modifier) (qualifier value)",
                            "system": "http://snomed.info/sct"
                        }
                    ]
                },
                "subject": {
                    "reference": "Patient/cbaf3669-a8aa-462f-a2a5-8d45c4ccb250"
                },
                "verificationStatus": {
                    "coding": [
                        {
                            "code": "confirmed",
                            "display": "Confirmed",
                            "system": "http://terminology.hl7.org/CodeSystem/condition-ver-status"
                        },
                        {
                            "code": "410605003",
                            "display": "Confirmed present (qualifier value)",
                            "system": "http://snomed.info/sct"
                        }
                    ]
                },
                "resourceType": "Condition"
            }
        },
        {
            "request": {
                "method": "POST",
                "url": "Condition"
            },
            "resource": {
                "id": "00975dfd-d390-4480-a214-9ac8c9acf528",
                "meta": {
                    "profile": [
                        "https://www.netzwerk-universitaetsmedizin.de/fhir/StructureDefinition/symptoms-covid-19"
                    ]
                },
                "extension": [
                    {
                        "url": "https://www.netzwerk-universitaetsmedizin.de/fhir/StructureDefinition/uncertainty-of-presence",
                        "valueCodeableConcept": {
                            "coding": [
                                {
                                    "code": "261665006",
                                    "display": "Unknown (qualifier value)",
                                    "system": "http://snomed.info/sct"
                                }
                            ],
                            "text": "Presence of symptom is unknown."
                        }
                    }
                ],
                "category": [
                    {
                        "coding": [
                            {
                                "code": "75325-1",
                                "display": "Symptom",
                                "system": "http://loinc.org"
                            }
                        ]
                    }
                ],
                "code": {
                    "coding": [
                        {
                            "code": "422587007",
                            "display": "Nausea (finding)",
                            "system": "http://snomed.info/sct"
                        }
                    ]
                },
                "recordedDate": "2020-11-17T10:51:04+01:00",
                "subject": {
                    "reference": "Patient/cbaf3669-a8aa-462f-a2a5-8d45c4ccb250"
                },
                "resourceType": "Condition"
            }
        },
        {
            "request": {
                "method": "POST",
                "url": "Condition"
            },
            "resource": {
                "id": "3e4938d1-03e6-4e60-8702-be11db536414",
                "meta": {
                    "profile": [
                        "https://www.netzwerk-universitaetsmedizin.de/fhir/StructureDefinition/symptoms-covid-19"
                    ]
                },
                "category": [
                    {
                        "coding": [
                            {
                                "code": "75325-1",
                                "display": "Symptom",
                                "system": "http://loinc.org"
                            }
                        ]
                    }
                ],
                "clinicalStatus": {
                    "coding": [
                        {
                            "code": "active",
                            "display": "Active",
                            "system": "http://terminology.hl7.org/CodeSystem/condition-clinical"
                        }
                    ]
                },
                "code": {
                    "coding": [
                        {
                            "code": "426000000",
                            "display": "Fever greater than 100.4 Fahrenheit / 38\u00b0 Celsius (finding)",
                            "system": "http://snomed.info/sct"
                        }
                    ]
                },
                "recordedDate": "2020-11-17T10:51:04+01:00",
                "severity": {
                    "coding": [
                        {
                            "code": "6736007",
                            "display": "Moderate (severity modifier) (qualifier value)",
                            "system": "http://snomed.info/sct"
                        }
                    ]
                },
                "subject": {
                    "reference": "Patient/cbaf3669-a8aa-462f-a2a5-8d45c4ccb250"
                },
                "verificationStatus": {
                    "coding": [
                        {
                            "code": "confirmed",
                            "display": "Confirmed",
                            "system": "http://terminology.hl7.org/CodeSystem/condition-ver-status"
                        },
                        {
                            "code": "410605003",
                            "display": "Confirmed present (qualifier value)",
                            "system": "http://snomed.info/sct"
                        }
                    ]
                },
                "resourceType": "Condition"
            }
        },
        {
            "request": {
                "method": "POST",
                "url": "Condition"
            },
            "resource": {
                "id": "1c31650a-bfb7-416f-8612-fba7ecdad119",
                "meta": {
                    "profile": [
                        "https://www.netzwerk-universitaetsmedizin.de/fhir/StructureDefinition/symptoms-covid-19"
                    ]
                },
                "category": [
                    {
                        "coding": [
                            {
                                "code": "75325-1",
                                "display": "Symptom",
                                "system": "http://loinc.org"
                            }
                        ]
                    }
                ],
                "code": {
                    "coding": [
                        {
                            "code": "25064002",
                            "display": "Headache (finding)",
                            "system": "http://snomed.info/sct"
                        }
                    ]
                },
                "recordedDate": "2020-11-17T10:51:04+01:00",
                "subject": {
                    "reference": "Patient/cbaf3669-a8aa-462f-a2a5-8d45c4ccb250"
                },
                "verificationStatus": {
                    "coding": [
                        {
                            "code": "refuted",
                            "display": "Refuted",
                            "system": "http://terminology.hl7.org/CodeSystem/condition-ver-status"
                        },
                        {
                            "code": "410594000",
                            "display": "Definitely NOT present (qualifier value)",
                            "system": "http://snomed.info/sct"
                        }
                    ]
                },
                "resourceType": "Condition"
            }
        },
        {
            "request": {
                "method": "POST",
                "url": "Procedure"
            },
            "resource": {
                "id": "378c91b6-3def-4249-8872-fc4087c948d5",
                "meta": {
                    "profile": [
                        "https://www.netzwerk-universitaetsmedizin.de/fhir/StructureDefinition/dialysis"
                    ]
                },
                "category": {
                    "coding": [
                        {
                            "code": "277132007",
                            "display": "Therapeutic procedure (procedure)",
                            "system": "http://snomed.info/sct"
                        }
                    ]
                },
                "code": {
                    "coding": [
                        {
                            "code": "108241001",
                            "display": "Dialysis procedure (procedure)",
                            "system": "http://snomed.info/sct"
                        }
                    ],
                    "text": "Dialysis"
                },
                "performedDateTime": "2020-11-17T10:51:04+01:00",
                "status": "in-progress",
                "subject": {
                    "reference": "Patient/cbaf3669-a8aa-462f-a2a5-8d45c4ccb250"
                },
                "resourceType": "Procedure"
            }
        },
        {
            "request": {
                "method": "POST",
                "url": "Procedure"
            },
            "resource": {
                "id": "2ad627f6-497d-4f95-bba6-39b0321a55a0",
                "meta": {
                    "profile": [
                        "https://www.netzwerk-universitaetsmedizin.de/fhir/StructureDefinition/apheresis"
                    ]
                },
                "category": {
                    "coding": [
                        {
                            "code": "277132007",
                            "display": "Therapeutic procedure (procedure)",
                            "system": "http://snomed.info/sct"
                        }
                    ]
                },
                "code": {
                    "coding": [
                        {
                            "code": "127788007",
                            "display": "Apheresis (procedure)",
                            "system": "http://snomed.info/sct"
                        }
                    ],
                    "text": "Apheresis"
                },
                "performedDateTime": "2020-11-17T10:51:04+01:00",
                "status": "in-progress",
                "subject": {
                    "reference": "Patient/cbaf3669-a8aa-462f-a2a5-8d45c4ccb250"
                },
                "resourceType": "Procedure"
            }
        },
        {
            "request": {
                "method": "POST",
                "url": "Procedure"
            },
            "resource": {
                "id": "58a3b6e8-12d4-498a-a7c2-2685cd1227c7",
                "meta": {
                    "profile": [
                        "https://www.netzwerk-universitaetsmedizin.de/fhir/StructureDefinition/prone-position"
                    ]
                },
                "category": {
                    "coding": [
                        {
                            "code": "225287004",
                            "display": "Procedures relating to positioning and support (procedure)",
                            "system": "http://snomed.info/sct"
                        }
                    ]
                },
                "code": {
                    "coding": [
                        {
                            "code": "431182000",
                            "display": "Placing subject in prone position (procedure)",
                            "system": "http://snomed.info/sct"
                        }
                    ],
                    "text": "Prone position"
                },
                "performedDateTime": "2020-11-17T10:51:04+01:00",
                "status": "in-progress",
                "subject": {
                    "reference": "Patient/cbaf3669-a8aa-462f-a2a5-8d45c4ccb250"
                },
                "resourceType": "Procedure"
            }
        },
        {
            "request": {
                "method": "POST",
                "url": "Procedure"
            },
            "resource": {
                "id": "ed89f3b7-7377-49ce-8352-286b03ee7ee1",
                "meta": {
                    "profile": [
                        "https://www.netzwerk-universitaetsmedizin.de/fhir/StructureDefinition/extracorporeal-membrane-oxygenation"
                    ]
                },
                "category": {
                    "coding": [
                        {
                            "code": "277132007",
                            "display": "Therapeutic procedure (procedure)",
                            "system": "http://snomed.info/sct"
                        }
                    ]
                },
                "code": {
                    "coding": [
                        {
                            "code": "233573008",
                            "display": "Extracorporeal membrane oxygenation (procedure)",
                            "system": "http://snomed.info/sct"
                        }
                    ],
                    "text": "ECMO"
                },
                "performedDateTime": "2020-11-17T10:51:04+01:00",
                "status": "in-progress",
                "subject": {
                    "reference": "Patient/cbaf3669-a8aa-462f-a2a5-8d45c4ccb250"
                },
                "resourceType": "Procedure"
            }
        },
        {
            "request": {
                "method": "PUT",
                "url": "Observation/e42ecff4-92c8-4b40-b5e1-d3bff650ec6d"
            },
            "resource": {
                "id": "e42ecff4-92c8-4b40-b5e1-d3bff650ec6d",
                "meta": {
                    "profile": [
                        "https://www.netzwerk-universitaetsmedizin.de/fhir/StructureDefinition/patient-in-icu"
                    ]
                },
                "category": [
                    {
                        "coding": [
                            {
                                "code": "survey",
                                "display": "Survey",
                                "system": "http://terminology.hl7.org/CodeSystem/observation-category"
                            }
                        ]
                    }
                ],
                "code": {
                    "coding": [
                        {
                            "code": "01",
                            "display": "Is the patient in the intensive care unit?",
                            "system": "https://www.netzwerk-universitaetsmedizin.de/fhir/CodeSystem/ecrf-parameter-codes"
                        }
                    ]
                },
                "effectiveDateTime": "2020-11-17T10:51:04+01:00",
                "status": "final",
                "subject": {
                    "reference": "Patient/cbaf3669-a8aa-462f-a2a5-8d45c4ccb250"
                },
                "valueCodeableConcept": {
                    "coding": [
                        {
                            "code": "261665006",
                            "display": "Unknown (qualifier value)",
                            "system": "http://snomed.info/sct"
                        }
                    ]
                },
                "resourceType": "Observation"
            }
        },
        {
            "request": {
                "method": "POST",
                "url": "Procedure"
            },
            "resource": {
                "id": "95bcd87d-8eb9-4e68-85de-174e4f25ef9d",
                "meta": {
                    "profile": [
                        "https://www.netzwerk-universitaetsmedizin.de/fhir/StructureDefinition/respiratory-therapies"
                    ]
                },
                "category": {
                    "coding": [
                        {
                            "code": "277132007",
                            "display": "Therapeutic procedure (procedure)",
                            "system": "http://snomed.info/sct"
                        }
                    ]
                },
                "code": {
                    "coding": [
                        {
                            "code": "40617009",
                            "display": "Artificial respiration (procedure)",
                            "system": "http://snomed.info/sct"
                        }
                    ],
                    "text": "Invasive ventilation (orotracheal)"
                },
                "performedDateTime": "2020-11-17T10:51:04+01:00",
                "status": "in-progress",
                "subject": {
                    "reference": "Patient/cbaf3669-a8aa-462f-a2a5-8d45c4ccb250"
                },
                "usedCode": [
                    {
                        "coding": [
                            {
                                "code": "26412008",
                                "display": "Endotracheal tube, device (physical object)",
                                "system": "http://snomed.info/sct"
                            }
                        ]
                    }
                ],
                "resourceType": "Procedure"
            }
        },
        {
            "request": {
                "method": "PUT",
                "url": "Observation/49e19be0-f9e4-4755-884d-aa2bf924021d"
            },
            "resource": {
                "id": "49e19be0-f9e4-4755-884d-aa2bf924021d",
                "meta": {
                    "profile": [
                        "https://www.netzwerk-universitaetsmedizin.de/fhir/StructureDefinition/carbon-dioxide-partial-pressure"
                    ]
                },
                "category": [
                    {
                        "coding": [
                            {
                                "code": "26436-6",
                                "system": "http://loinc.org"
                            },
                            {
                                "code": "laboratory",
                                "system": "http://terminology.hl7.org/CodeSystem/observation-category"
                            },
                            {
                                "code": "18767-4",
                                "system": "http://loinc.org"
                            }
                        ]
                    }
                ],
                "code": {
                    "coding": [
                        {
                            "code": "2019-8",
                            "display": "Carbon dioxide [Partial pressure] in Arterial blood",
                            "system": "http://loinc.org"
                        }
                    ],
                    "text": "paCO2"
                },
                "effectiveDateTime": "2020-11-17T10:51:04+01:00",
                "identifier": [
                    {
                        "assigner": {
                            "reference": "Organization/Charit\u00e9"
                        },
                        "system": "https://www.charite.de/fhir/CodeSystem/lab-identifiers",
                        "type": {
                            "coding": [
                                {
                                    "code": "OBI",
                                    "system": "http://terminology.hl7.org/CodeSystem/v2-0203"
                                }
                            ]
                        },
                        "value": "2019-8_paCO2"
                    }
                ],
                "status": "final",
                "subject": {
                    "reference": "Patient/cbaf3669-a8aa-462f-a2a5-8d45c4ccb250"
                },
                "valueQuantity": {
                    "code": "mm[Hg]",
                    "system": "http://unitsofmeasure.org",
                    "unit": "mmHg",
                    "value": 36
                },
                "resourceType": "Observation"
            }
        },
        {
            "request": {
                "method": "PUT",
                "url": "Observation/0ba04ff0-7318-473b-a0fc-b56efb479d0e"
            },
            "resource": {
                "id": "0ba04ff0-7318-473b-a0fc-b56efb479d0e",
                "meta": {
                    "profile": [
                        "https://www.netzwerk-universitaetsmedizin.de/fhir/StructureDefinition/oxygen-partial-pressure"
                    ]
                },
                "category": [
                    {
                        "coding": [
                            {
                                "code": "26436-6",
                                "system": "http://loinc.org"
                            },
                            {
                                "code": "laboratory",
                                "system": "http://terminology.hl7.org/CodeSystem/observation-category"
                            },
                            {
                                "code": "18767-4",
                                "system": "http://loinc.org"
                            }
                        ]
                    }
                ],
                "code": {
                    "coding": [
                        {
                            "code": "2703-7",
                            "display": "Oxygen [Partial pressure] in Arterial blood",
                            "system": "http://loinc.org"
                        }
                    ],
                    "text": "paO2"
                },
                "effectiveDateTime": "2020-11-17T10:51:04+01:00",
                "identifier": [
                    {
                        "assigner": {
                            "reference": "Organization/Charit\u00e9"
                        },
                        "system": "https://www.charite.de/fhir/CodeSystem/lab-identifiers",
                        "type": {
                            "coding": [
                                {
                                    "code": "OBI",
                                    "system": "http://terminology.hl7.org/CodeSystem/v2-0203"
                                }
                            ]
                        },
                        "value": "2703-7_paO2"
                    }
                ],
                "status": "final",
                "subject": {
                    "reference": "Patient/cbaf3669-a8aa-462f-a2a5-8d45c4ccb250"
                },
                "valueQuantity": {
                    "code": "mm[Hg]",
                    "system": "http://unitsofmeasure.org",
                    "unit": "mmHg",
                    "value": 95
                },
                "resourceType": "Observation"
            }
        },
        {
            "request": {
                "method": "PUT",
                "url": "Observation/5e5c531a-1689-484d-b2e9-1ac118287585"
            },
            "resource": {
                "id": "5e5c531a-1689-484d-b2e9-1ac118287585",
                "meta": {
                    "profile": [
                        "https://www.netzwerk-universitaetsmedizin.de/fhir/StructureDefinition/inhaled-oxygen-concentration"
                    ]
                },
                "category": [
                    {
                        "coding": [
                            {
                                "code": "26436-6",
                                "system": "http://loinc.org"
                            },
                            {
                                "code": "laboratory",
                                "system": "http://terminology.hl7.org/CodeSystem/observation-category"
                            },
                            {
                                "code": "18767-4",
                                "system": "http://loinc.org"
                            }
                        ]
                    }
                ],
                "code": {
                    "coding": [
                        {
                            "code": "3150-0",
                            "display": "Inhaled oxygen concentration",
                            "system": "http://loinc.org"
                        }
                    ],
                    "text": "FiO2"
                },
                "effectiveDateTime": "2020-11-17T10:51:04+01:00",
                "identifier": [
                    {
                        "assigner": {
                            "reference": "Organization/Charit\u00e9"
                        },
                        "system": "https://www.charite.de/fhir/CodeSystem/lab-identifiers",
                        "type": {
                            "coding": [
                                {
                                    "code": "OBI",
                                    "system": "http://terminology.hl7.org/CodeSystem/v2-0203"
                                }
                            ]
                        },
                        "value": "3150-0_FiO2"
                    }
                ],
                "status": "final",
                "subject": {
                    "reference": "Patient/cbaf3669-a8aa-462f-a2a5-8d45c4ccb250"
                },
                "valueQuantity": {
                    "code": "%",
                    "system": "http://unitsofmeasure.org",
                    "unit": "%",
                    "value": 76
                },
                "resourceType": "Observation"
            }
        },
        {
            "request": {
                "method": "PUT",
                "url": "Observation/40bba355-e703-48b3-a344-74a35f60240e"
            },
            "resource": {
                "id": "40bba355-e703-48b3-a344-74a35f60240e",
                "meta": {
                    "profile": [
                        "https://www.netzwerk-universitaetsmedizin.de/fhir/StructureDefinition/pH"
                    ]
                },
                "category": [
                    {
                        "coding": [
                            {
                                "code": "26436-6",
                                "system": "http://loinc.org"
                            },
                            {
                                "code": "laboratory",
                                "system": "http://terminology.hl7.org/CodeSystem/observation-category"
                            },
                            {
                                "code": "18767-4",
                                "system": "http://loinc.org"
                            }
                        ]
                    }
                ],
                "code": {
                    "coding": [
                        {
                            "code": "2744-1",
                            "display": "pH of Arterial blood",
                            "system": "http://loinc.org"
                        }
                    ],
                    "text": "pH"
                },
                "effectiveDateTime": "2020-11-17T10:51:04+01:00",
                "identifier": [
                    {
                        "assigner": {
                            "reference": "Organization/Charit\u00e9"
                        },
                        "system": "https://www.charite.de/fhir/CodeSystem/lab-identifiers",
                        "type": {
                            "coding": [
                                {
                                    "code": "OBI",
                                    "system": "http://terminology.hl7.org/CodeSystem/v2-0203"
                                }
                            ]
                        },
                        "value": "2744-1_pH"
                    }
                ],
                "status": "final",
                "subject": {
                    "reference": "Patient/cbaf3669-a8aa-462f-a2a5-8d45c4ccb250"
                },
                "valueQuantity": {
                    "code": "[pH]",
                    "system": "http://unitsofmeasure.org",
                    "unit": "pH",
                    "value": 7.36
                },
                "resourceType": "Observation"
            }
        },
        {
            "request": {
                "method": "PUT",
                "url": "Observation/bc092578-2c7a-4de8-b65c-75c2cec5fd53"
            },
            "resource": {
                "id": "bc092578-2c7a-4de8-b65c-75c2cec5fd53",
                "meta": {
                    "profile": [
                        "https://www.netzwerk-universitaetsmedizin.de/fhir/StructureDefinition/oxygen-saturation"
                    ]
                },
                "category": [
                    {
                        "coding": [
                            {
                                "code": "vital-signs",
                                "system": "http://terminology.hl7.org/CodeSystem/observation-category"
                            }
                        ]
                    }
                ],
                "code": {
                    "coding": [
                        {
                            "code": "2708-6",
                            "display": "Oxygen saturation in Arterial blood",
                            "system": "http://loinc.org"
                        }
                    ],
                    "text": "Oxygen saturation"
                },
                "effectiveDateTime": "2020-11-17T10:51:04+01:00",
                "identifier": [
                    {
                        "assigner": {
                            "reference": "Organization/Charit\u00e9"
                        },
                        "system": "https://www.charite.de/fhir/CodeSystem/lab-identifiers",
                        "type": {
                            "coding": [
                                {
                                    "code": "OBI",
                                    "system": "http://terminology.hl7.org/CodeSystem/v2-0203"
                                }
                            ]
                        },
                        "value": "2708-6_OxygenSaturation"
                    }
                ],
                "status": "final",
                "subject": {
                    "reference": "Patient/cbaf3669-a8aa-462f-a2a5-8d45c4ccb250"
                },
                "valueQuantity": {
                    "code": "%",
                    "system": "http://unitsofmeasure.org",
                    "unit": "%",
                    "value": 94
                },
                "resourceType": "Observation"
            }
        },
        {
            "request": {
                "method": "PUT",
                "url": "Observation/4a62df5e-8ffc-4550-bf48-08d4c4da07ee"
            },
            "resource": {
                "id": "4a62df5e-8ffc-4550-bf48-08d4c4da07ee",
                "meta": {
                    "profile": [
                        "https://www.netzwerk-universitaetsmedizin.de/fhir/StructureDefinition/blood-gas-panel"
                    ]
                },
                "category": [
                    {
                        "coding": [
                            {
                                "code": "26436-6",
                                "system": "http://loinc.org"
                            },
                            {
                                "code": "laboratory",
                                "system": "http://terminology.hl7.org/CodeSystem/observation-category"
                            },
                            {
                                "code": "18767-4",
                                "system": "http://loinc.org"
                            }
                        ]
                    }
                ],
                "code": {
                    "coding": [
                        {
                            "code": "24336-0",
                            "display": "Gas panel (BldA)",
                            "system": "http://loinc.org"
                        }
                    ],
                    "text": "Gas panel - Arterial blood"
                },
                "effectiveDateTime": "2020-11-17T10:51:04+01:00",
                "hasMember": [
                    {
                        "reference": "Observation/49e19be0-f9e4-4755-884d-aa2bf924021d"
                    },
                    {
                        "reference": "Observation/0ba04ff0-7318-473b-a0fc-b56efb479d0e"
                    },
                    {
                        "reference": "Observation/5e5c531a-1689-484d-b2e9-1ac118287585"
                    },
                    {
                        "reference": "Observation/40bba355-e703-48b3-a344-74a35f60240e"
                    },
                    {
                        "reference": "Observation/bc092578-2c7a-4de8-b65c-75c2cec5fd53"
                    }
                ],
                "identifier": [
                    {
                        "assigner": {
                            "reference": "Organization/Charit\u00e9"
                        },
                        "system": "https://www.charite.de/fhir/CodeSystem/lab-identifiers",
                        "type": {
                            "coding": [
                                {
                                    "code": "OBI",
                                    "system": "http://terminology.hl7.org/CodeSystem/v2-0203"
                                }
                            ]
                        },
                        "value": "24336-0_gasPanelBldA"
                    }
                ],
                "status": "final",
                "subject": {
                    "reference": "Patient/cbaf3669-a8aa-462f-a2a5-8d45c4ccb250"
                },
                "resourceType": "Observation"
            }
        },
        {
            "request": {
                "method": "PUT",
                "url": "Observation/651f1805-50bf-4df2-9054-92f0fb393ec3"
            },
            "resource": {
                "id": "651f1805-50bf-4df2-9054-92f0fb393ec3",
                "meta": {
                    "profile": [
                        "https://www.netzwerk-universitaetsmedizin.de/fhir/StructureDefinition/sofa-score"
                    ]
                },
                "category": [
                    {
                        "coding": [
                            {
                                "code": "survey",
                                "system": "http://terminology.hl7.org/CodeSystem/observation-category"
                            }
                        ]
                    }
                ],
                "code": {
                    "coding": [
                        {
                            "code": "06",
                            "display": "SOFA-Score",
                            "system": "https://www.netzwerk-universitaetsmedizin.de/fhir/CodeSystem/ecrf-parameter-codes"
                        }
                    ],
                    "text": "Sepsis-related organ failure assessment score"
                },
                "component": [
                    {
                        "code": {
                            "coding": [
                                {
                                    "code": "resp",
                                    "display": "Respiratory system",
                                    "system": "https://www.netzwerk-universitaetsmedizin.de/fhir/CodeSystem/sofa-score"
                                }
                            ],
                            "text": "SOFA Respiratory system scoring category"
                        },
                        "valueCodeableConcept": {
                            "coding": [
                                {
                                    "code": "resp3",
                                    "display": "Respiratory system SOFA score 3",
                                    "system": "https://www.netzwerk-universitaetsmedizin.de/fhir/CodeSystem/sofa-score"
                                }
                            ],
                            "text": "PaO2/FiO2 [mmHg (kPa)] < 200 (26.7) and mechanically ventilated"
                        }
                    },
                    {
                        "code": {
                            "coding": [
                                {
                                    "code": "ns",
                                    "display": "Nervous system",
                                    "system": "https://www.netzwerk-universitaetsmedizin.de/fhir/CodeSystem/sofa-score"
                                }
                            ],
                            "text": "SOFA Nervous system scoring category"
                        },
                        "valueCodeableConcept": {
                            "coding": [
                                {
                                    "code": "ns2",
                                    "display": "Nervous system SOFA score 2",
                                    "system": "https://www.netzwerk-universitaetsmedizin.de/fhir/CodeSystem/sofa-score"
                                }
                            ],
                            "text": "Glasgow Coma Scale (GCS) 10-12"
                        }
                    },
                    {
                        "code": {
                            "coding": [
                                {
                                    "code": "cvs",
                                    "display": "Cardiovascular system",
                                    "system": "https://www.netzwerk-universitaetsmedizin.de/fhir/CodeSystem/sofa-score"
                                }
                            ],
                            "text": "SOFA Cardiovascular system scoring category"
                        },
                        "valueCodeableConcept": {
                            "coding": [
                                {
                                    "code": "cvs4",
                                    "display": "Cardiovascular system SOFA score 4",
                                    "system": "https://www.netzwerk-universitaetsmedizin.de/fhir/CodeSystem/sofa-score"
                                }
                            ],
                            "text": "Administration of dopamine > 15 ug/kg/min OR epinephrine > 0.1 ug/kg/min OR norepinephrine > 0.1 ug/kg/min"
                        }
                    },
                    {
                        "code": {
                            "coding": [
                                {
                                    "code": "liv",
                                    "display": "Liver",
                                    "system": "https://www.netzwerk-universitaetsmedizin.de/fhir/CodeSystem/sofa-score"
                                }
                            ],
                            "text": "SOFA Liver scoring category"
                        },
                        "valueCodeableConcept": {
                            "coding": [
                                {
                                    "code": "liv2",
                                    "display": "Liver SOFA score 2",
                                    "system": "https://www.netzwerk-universitaetsmedizin.de/fhir/CodeSystem/sofa-score"
                                }
                            ],
                            "text": "Bilirubin (mg/dl) [umol/L] 2.0-5.9 [33-101]"
                        }
                    },
                    {
                        "code": {
                            "coding": [
                                {
                                    "code": "coa",
                                    "display": "Coagulation",
                                    "system": "https://www.netzwerk-universitaetsmedizin.de/fhir/CodeSystem/sofa-score"
                                }
                            ],
                            "text": "SOFA Coagulation scoring category"
                        },
                        "valueCodeableConcept": {
                            "coding": [
                                {
                                    "code": "coa4",
                                    "display": "Coagulation SOFA score 4",
                                    "system": "https://www.netzwerk-universitaetsmedizin.de/fhir/CodeSystem/sofa-score"
                                }
                            ],
                            "text": "Platelets\u00d710^3/ul < 20"
                        }
                    },
                    {
                        "code": {
                            "coding": [
                                {
                                    "code": "kid",
                                    "display": "Kidneys",
                                    "system": "https://www.netzwerk-universitaetsmedizin.de/fhir/CodeSystem/sofa-score"
                                }
                            ],
                            "text": "SOFA Kidneys scoring category"
                        },
                        "valueCodeableConcept": {
                            "coding": [
                                {
                                    "code": "kid3",
                                    "display": "Kidneys SOFA score 3",
                                    "system": "https://www.netzwerk-universitaetsmedizin.de/fhir/CodeSystem/sofa-score"
                                }
                            ],
                            "text": "Creatinine (mg/dl) [umol/L] (or urine output) 3.5-4.9 [300-440] (or < 500 ml/d)"
                        }
                    }
                ],
                "effectiveDateTime": "2020-11-17T10:51:04+01:00",
                "identifier": [
                    {
                        "assigner": {
                            "reference": "Organization/Charit\u00e9"
                        },
                        "system": "https://www.charite.de/fhir/CodeSystem/observation-identifiers",
                        "type": {
                            "coding": [
                                {
                                    "code": "OBI",
                                    "system": "http://terminology.hl7.org/CodeSystem/v2-0203"
                                }
                            ]
                        },
                        "value": "06_SOFA-Score"
                    }
                ],
                "status": "final",
                "subject": {
                    "reference": "Patient/cbaf3669-a8aa-462f-a2a5-8d45c4ccb250"
                },
                "resourceType": "Observation"
            }
        },
        {
            "request": {
                "method": "PUT",
                "url": "Observation/bc7ee618-58e4-402a-98e1-a61a92c6d979"
            },
            "resource": {
                "id": "bc7ee618-58e4-402a-98e1-a61a92c6d979",
                "meta": {
                    "profile": [
                        "https://www.netzwerk-universitaetsmedizin.de/fhir/StructureDefinition/heart-rate"
                    ]
                },
                "category": [
                    {
                        "coding": [
                            {
                                "code": "vital-signs",
                                "system": "http://terminology.hl7.org/CodeSystem/observation-category"
                            }
                        ]
                    }
                ],
                "code": {
                    "coding": [
                        {
                            "code": "8867-4",
                            "display": "Heart rate",
                            "system": "http://loinc.org"
                        },
                        {
                            "code": "364075005",
                            "display": "Heart rate (observable entity)",
                            "system": "http://snomed.info/sct"
                        }
                    ],
                    "text": "Heart rate"
                },
                "effectiveDateTime": "2020-11-17T10:51:04+01:00",
                "identifier": [
                    {
                        "assigner": {
                            "reference": "Organization/Charit\u00e9"
                        },
                        "system": "https://www.charite.de/fhir/CodeSystem/observation-identifiers",
                        "type": {
                            "coding": [
                                {
                                    "code": "OBI",
                                    "system": "http://terminology.hl7.org/CodeSystem/v2-0203"
                                }
                            ]
                        },
                        "value": "8867-4_HeartRate"
                    }
                ],
                "status": "final",
                "subject": {
                    "reference": "Patient/cbaf3669-a8aa-462f-a2a5-8d45c4ccb250"
                },
                "valueQuantity": {
                    "code": "/min",
                    "system": "http://unitsofmeasure.org",
                    "unit": "per minute",
                    "value": 90
                },
                "resourceType": "Observation"
            }
        },
        {
            "request": {
                "method": "PUT",
                "url": "Observation/d6920b4a-eff1-4716-8c58-da217adb5c82"
            },
            "resource": {
                "id": "d6920b4a-eff1-4716-8c58-da217adb5c82",
                "meta": {
                    "profile": [
                        "https://www.netzwerk-universitaetsmedizin.de/fhir/StructureDefinition/respiratory-rate"
                    ]
                },
                "category": [
                    {
                        "coding": [
                            {
                                "code": "vital-signs",
                                "system": "http://terminology.hl7.org/CodeSystem/observation-category"
                            }
                        ]
                    }
                ],
                "code": {
                    "coding": [
                        {
                            "code": "9279-1",
                            "display": "Respiratory rate",
                            "system": "http://loinc.org"
                        },
                        {
                            "code": "86290005",
                            "display": "Respiratory rate (observable entity)",
                            "system": "http://snomed.info/sct"
                        }
                    ],
                    "text": "Respiratory rate"
                },
                "effectiveDateTime": "2020-11-17T10:51:04+01:00",
                "identifier": [
                    {
                        "assigner": {
                            "reference": "Organization/Charit\u00e9"
                        },
                        "system": "https://www.charite.de/fhir/CodeSystem/observation-identifiers",
                        "type": {
                            "coding": [
                                {
                                    "code": "OBI",
                                    "system": "http://terminology.hl7.org/CodeSystem/v2-0203"
                                }
                            ]
                        },
                        "value": "9279-1_RespiratoryRate"
                    }
                ],
                "status": "final",
                "subject": {
                    "reference": "Patient/cbaf3669-a8aa-462f-a2a5-8d45c4ccb250"
                },
                "valueQuantity": {
                    "code": "/min",
                    "system": "http://unitsofmeasure.org",
                    "unit": "per minute",
                    "value": 45
                },
                "resourceType": "Observation"
            }
        },
        {
            "request": {
                "method": "PUT",
                "url": "Observation/071def21-5c39-49d7-8a53-22c0729aaa8d"
            },
            "resource": {
                "id": "071def21-5c39-49d7-8a53-22c0729aaa8d",
                "meta": {
                    "profile": [
                        "https://www.netzwerk-universitaetsmedizin.de/fhir/StructureDefinition/body-temperature"
                    ]
                },
                "category": [
                    {
                        "coding": [
                            {
                                "code": "vital-signs",
                                "system": "http://terminology.hl7.org/CodeSystem/observation-category"
                            }
                        ]
                    }
                ],
                "code": {
                    "coding": [
                        {
                            "code": "8310-5",
                            "display": "Body temperature",
                            "system": "http://loinc.org"
                        },
                        {
                            "code": "386725007",
                            "display": "Body temperature (observable entity)",
                            "system": "http://snomed.info/sct"
                        }
                    ],
                    "text": "Body temperature"
                },
                "effectiveDateTime": "2020-11-17T10:51:04+01:00",
                "identifier": [
                    {
                        "assigner": {
                            "reference": "Organization/Charit\u00e9"
                        },
                        "system": "https://www.charite.de/fhir/CodeSystem/observation-identifiers",
                        "type": {
                            "coding": [
                                {
                                    "code": "OBI",
                                    "system": "http://terminology.hl7.org/CodeSystem/v2-0203"
                                }
                            ]
                        },
                        "value": "8310-5_BodyTemperature"
                    }
                ],
                "status": "final",
                "subject": {
                    "reference": "Patient/cbaf3669-a8aa-462f-a2a5-8d45c4ccb250"
                },
                "valueQuantity": {
                    "code": "Cel",
                    "system": "http://unitsofmeasure.org",
                    "unit": "\u00b0C",
                    "value": 36.42
                },
                "resourceType": "Observation"
            }
        }
    ],
    "timestamp": "2020-11-17T10:51:04+01:00",
    "type": "transaction",
    "resourceType": "Bundle"
}
