{
    "meta": {
        "profile": [
            "https://www.netzwerk-universitaetsmedizin.de/fhir/StructureDefinition/gecco-bundle"
        ]
    },
    "entry": [
        {
            "request": {
                "method": "PUT",
                "url": "Patient/cee5063d-5374-4cc6-ac37-52cb733804c8"
            },
            "resource": {
                "id": "cee5063d-5374-4cc6-ac37-52cb733804c8",
                "meta": {
                    "profile": [
                        "https://www.netzwerk-universitaetsmedizin.de/fhir/StructureDefinition/Patient"
                    ]
                },
                "extension": [
                    {
                        "url": "https://www.netzwerk-universitaetsmedizin.de/fhir/StructureDefinition/ethnic-group",
                        "valueCoding": {
                            "code": "90027003",
                            "display": "Arabs (ethnic group)",
                            "system": "http://snomed.info/sct"
                        }
                    },
                    {
                        "extension": [
                            {
                                "url": "dateTimeOfDocumentation",
                                "valueDateTime": "2020-11-17T10:50:58+01:00"
                            },
                            {
                                "url": "age",
                                "valueAge": {
                                    "code": "a",
                                    "system": "http://unitsofmeasure.org",
                                    "unit": "years",
                                    "value": 49
                                }
                            }
                        ],
                        "url": "https://www.netzwerk-universitaetsmedizin.de/fhir/StructureDefinition/age"
                    }
                ],
                "birthDate": "1971-01-17",
                "identifier": [
                    {
                        "assigner": {
                            "reference": "Organization/Charit\u00e9"
                        },
                        "system": "https://www.charite.de/fhir/CodeSystem/medical-record-numbers",
                        "type": {
                            "coding": [
                                {
                                    "code": "MR",
                                    "system": "http://terminology.hl7.org/CodeSystem/v2-0203"
                                }
                            ]
                        },
                        "value": "80168333"
                    }
                ],
                "resourceType": "Patient"
            }
        },
        {
            "request": {
                "method": "PUT",
                "url": "Observation/0d87c42c-5822-445f-b2b5-d205da7d8212"
            },
            "resource": {
                "id": "0d87c42c-5822-445f-b2b5-d205da7d8212",
                "meta": {
                    "profile": [
                        "https://www.netzwerk-universitaetsmedizin.de/fhir/StructureDefinition/sex-assigned-at-birth"
                    ]
                },
                "category": [
                    {
                        "coding": [
                            {
                                "code": "social-history",
                                "display": "Social History",
                                "system": "http://terminology.hl7.org/CodeSystem/observation-category"
                            }
                        ]
                    }
                ],
                "code": {
                    "coding": [
                        {
                            "code": "76689-9",
                            "display": "Sex assigned at birth",
                            "system": "http://loinc.org"
                        }
                    ]
                },
                "effectiveDateTime": "2020-11-17T10:50:58+01:00",
                "status": "final",
                "subject": {
                    "reference": "Patient/cee5063d-5374-4cc6-ac37-52cb733804c8"
                },
                "valueCodeableConcept": {
                    "coding": [
                        {
                            "code": "unknown",
                            "display": "Unknown",
                            "system": "http://hl7.org/fhir/administrative-gender"
                        }
                    ],
                    "text": "Unknown"
                },
                "resourceType": "Observation"
            }
        },
        {
            "request": {
                "method": "PUT",
                "url": "Observation/f5ae1d19-4cd8-4a5b-b338-958c1a4fc5cd"
            },
            "resource": {
                "id": "f5ae1d19-4cd8-4a5b-b338-958c1a4fc5cd",
                "meta": {
                    "profile": [
                        "https://www.netzwerk-universitaetsmedizin.de/fhir/StructureDefinition/pregnancy-status"
                    ]
                },
                "category": [
                    {
                        "coding": [
                            {
                                "code": "social-history",
                                "system": "http://terminology.hl7.org/CodeSystem/observation-category"
                            }
                        ]
                    }
                ],
                "code": {
                    "coding": [
                        {
                            "code": "82810-3",
                            "display": "Pregnancy status",
                            "system": "http://loinc.org"
                        }
                    ],
                    "text": "Pregnancy status"
                },
                "effectiveDateTime": "2020-11-17T10:50:58+01:00",
                "identifier": [
                    {
                        "assigner": {
                            "reference": "Organization/Charit\u00e9"
                        },
                        "system": "https://www.charite.de/fhir/CodeSystem/observation-identifiers",
                        "type": {
                            "coding": [
                                {
                                    "code": "OBI",
                                    "system": "http://terminology.hl7.org/CodeSystem/v2-0203"
                                }
                            ]
                        },
                        "value": "82810-3_PregnancyStatus"
                    }
                ],
                "status": "final",
                "subject": {
                    "reference": "Patient/cee5063d-5374-4cc6-ac37-52cb733804c8"
                },
                "valueCodeableConcept": {
                    "coding": [
                        {
                            "code": "LA26683-5",
                            "display": "Not pregnant",
                            "system": "http://loinc.org"
                        },
                        {
                            "code": "60001007",
                            "display": "Not pregnant (finding)",
                            "system": "http://snomed.info/sct"
                        }
                    ]
                },
                "resourceType": "Observation"
            }
        },
        {
            "request": {
                "method": "PUT",
                "url": "Observation/cb7e136c-a860-45c4-881d-103f219bb079"
            },
            "resource": {
                "id": "cb7e136c-a860-45c4-881d-103f219bb079",
                "meta": {
                    "profile": [
                        "https://www.netzwerk-universitaetsmedizin.de/fhir/StructureDefinition/frailty-score"
                    ]
                },
                "category": [
                    {
                        "coding": [
                            {
                                "code": "survey",
                                "system": "http://terminology.hl7.org/CodeSystem/observation-category"
                            }
                        ]
                    }
                ],
                "code": {
                    "coding": [
                        {
                            "code": "763264000",
                            "display": "Canadian Study of Health and Aging Clinical Frailty Scale score",
                            "system": "http://snomed.info/sct"
                        }
                    ],
                    "text": "Frailty Scale Score"
                },
                "effectiveDateTime": "2020-11-17T10:50:58+01:00",
                "identifier": [
                    {
                        "assigner": {
                            "reference": "Organization/Charit\u00e9"
                        },
                        "system": "https://www.charite.de/fhir/CodeSystem/observation-identifiers",
                        "type": {
                            "coding": [
                                {
                                    "code": "OBI",
                                    "system": "http://terminology.hl7.org/CodeSystem/v2-0203"
                                }
                            ]
                        },
                        "value": "763264000_FrailtyScaleScore"
                    }
                ],
                "method": {
                    "coding": [
                        {
                            "code": "445414007",
                            "display": "Canadian Study of Health and Aging clinical frailty scale",
                            "system": "http://snomed.info/sct"
                        }
                    ]
                },
                "status": "final",
                "subject": {
                    "reference": "Patient/cee5063d-5374-4cc6-ac37-52cb733804c8"
                },
                "valueCodeableConcept": {
                    "coding": [
                        {
                            "code": "7",
                            "display": "Severely Frail",
                            "system": "https://www.netzwerk-universitaetsmedizin.de/fhir/CodeSystem/frailty-score"
                        }
                    ]
                },
                "resourceType": "Observation"
            }
        },
        {
            "request": {
                "method": "PUT",
                "url": "Observation/22ab9eb0-682f-4a30-b3a7-b6d4f2ad1cb8"
            },
            "resource": {
                "id": "22ab9eb0-682f-4a30-b3a7-b6d4f2ad1cb8",
                "meta": {
                    "profile": [
                        "https://www.netzwerk-universitaetsmedizin.de/fhir/StructureDefinition/body-weight"
                    ]
                },
                "category": [
                    {
                        "coding": [
                            {
                                "code": "vital-signs",
                                "system": "http://terminology.hl7.org/CodeSystem/observation-category"
                            }
                        ]
                    }
                ],
                "code": {
                    "coding": [
                        {
                            "code": "29463-7",
                            "display": "Body weight",
                            "system": "http://loinc.org"
                        },
                        {
                            "code": "27113001",
                            "display": "Body weight (observable entity)",
                            "system": "http://snomed.info/sct"
                        }
                    ],
                    "text": "Body weight"
                },
                "effectiveDateTime": "2020-11-17T10:50:58+01:00",
                "identifier": [
                    {
                        "assigner": {
                            "reference": "Organization/Charit\u00e9"
                        },
                        "system": "https://www.charite.de/fhir/CodeSystem/observation-identifiers",
                        "type": {
                            "coding": [
                                {
                                    "code": "OBI",
                                    "system": "http://terminology.hl7.org/CodeSystem/v2-0203"
                                }
                            ]
                        },
                        "value": "29463-7_BodyWeight"
                    }
                ],
                "status": "final",
                "subject": {
                    "reference": "Patient/cee5063d-5374-4cc6-ac37-52cb733804c8"
                },
                "valueQuantity": {
                    "code": "kg",
                    "system": "http://unitsofmeasure.org",
                    "unit": "kilogram",
                    "value": 90
                },
                "resourceType": "Observation"
            }
        },
        {
            "request": {
                "method": "PUT",
                "url": "Observation/fe334021-c694-4822-9d53-3207af6c5ba8"
            },
            "resource": {
                "id": "fe334021-c694-4822-9d53-3207af6c5ba8",
                "meta": {
                    "profile": [
                        "https://www.netzwerk-universitaetsmedizin.de/fhir/StructureDefinition/body-height"
                    ]
                },
                "category": [
                    {
                        "coding": [
                            {
                                "code": "vital-signs",
                                "system": "http://terminology.hl7.org/CodeSystem/observation-category"
                            }
                        ]
                    }
                ],
                "code": {
                    "coding": [
                        {
                            "code": "8302-2",
                            "display": "Body height",
                            "system": "http://loinc.org"
                        },
                        {
                            "code": "50373000",
                            "display": "Body height measure (observable entity)",
                            "system": "http://snomed.info/sct"
                        }
                    ],
                    "text": "Body height"
                },
                "effectiveDateTime": "2020-11-17T10:50:58+01:00",
                "identifier": [
                    {
                        "assigner": {
                            "reference": "Organization/Charit\u00e9"
                        },
                        "system": "https://www.charite.de/fhir/CodeSystem/observation-identifiers",
                        "type": {
                            "coding": [
                                {
                                    "code": "OBI",
                                    "system": "http://terminology.hl7.org/CodeSystem/v2-0203"
                                }
                            ]
                        },
                        "value": "8302-2_BodyHeight"
                    }
                ],
                "status": "final",
                "subject": {
                    "reference": "Patient/cee5063d-5374-4cc6-ac37-52cb733804c8"
                },
                "valueQuantity": {
                    "code": "cm",
                    "system": "http://unitsofmeasure.org",
                    "unit": "centimeter",
                    "value": 160
                },
                "resourceType": "Observation"
            }
        },
        {
            "request": {
                "method": "POST",
                "url": "Condition"
            },
            "resource": {
                "id": "70adacc1-2f48-4755-a191-0b72db8083d1",
                "meta": {
                    "profile": [
                        "https://www.netzwerk-universitaetsmedizin.de/fhir/StructureDefinition/chronic-lung-diseases"
                    ]
                },
                "category": [
                    {
                        "coding": [
                            {
                                "code": "418112009",
                                "display": "Pulmonary medicine",
                                "system": "http://snomed.info/sct"
                            }
                        ]
                    }
                ],
                "code": {
                    "coding": [
                        {
                            "code": "413839001",
                            "display": "Chronic lung disease",
                            "system": "http://snomed.info/sct"
                        }
                    ]
                },
                "recordedDate": "2020-11-17T10:50:58+01:00",
                "subject": {
                    "reference": "Patient/cee5063d-5374-4cc6-ac37-52cb733804c8"
                },
                "verificationStatus": {
                    "coding": [
                        {
                            "code": "refuted",
                            "display": "Refuted",
                            "system": "http://terminology.hl7.org/CodeSystem/condition-ver-status"
                        },
                        {
                            "code": "410594000",
                            "display": "Definitely NOT present (qualifier value)",
                            "system": "http://snomed.info/sct"
                        }
                    ]
                },
                "resourceType": "Condition"
            }
        },
        {
            "request": {
                "method": "POST",
                "url": "Condition"
            },
            "resource": {
                "id": "7fce5027-1a12-466b-9ed6-18f659360869",
                "meta": {
                    "profile": [
                        "https://www.netzwerk-universitaetsmedizin.de/fhir/StructureDefinition/cardiovascular-diseases"
                    ]
                },
                "category": [
                    {
                        "coding": [
                            {
                                "code": "722414000",
                                "display": "Vascular medicine",
                                "system": "http://snomed.info/sct"
                            }
                        ]
                    }
                ],
                "clinicalStatus": {
                    "coding": [
                        {
                            "code": "active",
                            "display": "Active",
                            "system": "http://terminology.hl7.org/CodeSystem/condition-clinical"
                        }
                    ]
                },
                "code": {
                    "coding": [
                        {
                            "code": "49601007",
                            "display": "Cardiovascular disease",
                            "system": "http://snomed.info/sct"
                        }
                    ]
                },
                "recordedDate": "2020-11-17T10:50:58+01:00",
                "subject": {
                    "reference": "Patient/cee5063d-5374-4cc6-ac37-52cb733804c8"
                },
                "verificationStatus": {
                    "coding": [
                        {
                            "code": "confirmed",
                            "display": "Confirmed",
                            "system": "http://terminology.hl7.org/CodeSystem/condition-ver-status"
                        },
                        {
                            "code": "410605003",
                            "display": "Confirmed present (qualifier value)",
                            "system": "http://snomed.info/sct"
                        }
                    ]
                },
                "resourceType": "Condition"
            }
        },
        {
            "request": {
                "method": "POST",
                "url": "Condition"
            },
            "resource": {
                "id": "7ee96bcd-15bf-42b0-ab42-88f421a35f10",
                "meta": {
                    "profile": [
                        "https://www.netzwerk-universitaetsmedizin.de/fhir/StructureDefinition/cardiovascular-diseases"
                    ]
                },
                "extension": [
                    {
                        "url": "https://www.netzwerk-universitaetsmedizin.de/fhir/StructureDefinition/uncertainty-of-presence",
                        "valueCodeableConcept": {
                            "coding": [
                                {
                                    "code": "261665006",
                                    "display": "Unknown (qualifier value)",
                                    "system": "http://snomed.info/sct"
                                }
                            ],
                            "text": "Presence of condition is unknown."
                        }
                    }
                ],
                "category": [
                    {
                        "coding": [
                            {
                                "code": "722414000",
                                "display": "Vascular medicine",
                                "system": "http://snomed.info/sct"
                            }
                        ]
                    }
                ],
                "code": {
                    "coding": [
                        {
                            "code": "38341003",
                            "display": "Hypertensive disorder",
                            "system": "http://snomed.info/sct"
                        }
                    ]
                },
                "recordedDate": "2020-11-17T10:50:58+01:00",
                "subject": {
                    "reference": "Patient/cee5063d-5374-4cc6-ac37-52cb733804c8"
                },
                "resourceType": "Condition"
            }
        },
        {
            "request": {
                "method": "POST",
                "url": "Condition"
            },
            "resource": {
                "id": "f82a6655-5fbf-4977-a43d-0e96e589911f",
                "meta": {
                    "profile": [
                        "https://www.netzwerk-universitaetsmedizin.de/fhir/StructureDefinition/cardiovascular-diseases"
                    ]
                },
                "extension": [
                    {
                        "url": "https://www.netzwerk-universitaetsmedizin.de/fhir/StructureDefinition/uncertainty-of-presence",
                        "valueCodeableConcept": {
                            "coding": [
                                {
                                    "code": "261665006",
                                    "display": "Unknown (qualifier value)",
                                    "system": "http://snomed.info/sct"
                                }
                            ],
                            "text": "Presence of condition is unknown."
                        }
                    }
                ],
                "category": [
                    {
                        "coding": [
                            {
                                "code": "722414000",
                                "display": "Vascular medicine",
                                "system": "http://snomed.info/sct"
                            }
                        ]
                    }
                ],
                "code": {
                    "coding": [
                        {
                            "code": "417662000:246090004=22298006",
                            "display": "History of myocardial infarction",
                            "system": "http://snomed.info/sct"
                        }
                    ]
                },
                "recordedDate": "2020-11-17T10:50:58+01:00",
                "subject": {
                    "reference": "Patient/cee5063d-5374-4cc6-ac37-52cb733804c8"
                },
                "resourceType": "Condition"
            }
        },
        {
            "request": {
                "method": "POST",
                "url": "Condition"
            },
            "resource": {
                "id": "a6ccf1ca-5c25-45b8-a059-307afa7f6020",
                "meta": {
                    "profile": [
                        "https://www.netzwerk-universitaetsmedizin.de/fhir/StructureDefinition/cardiovascular-diseases"
                    ]
                },
                "category": [
                    {
                        "coding": [
                            {
                                "code": "722414000",
                                "display": "Vascular medicine",
                                "system": "http://snomed.info/sct"
                            }
                        ]
                    }
                ],
                "clinicalStatus": {
                    "coding": [
                        {
                            "code": "active",
                            "display": "Active",
                            "system": "http://terminology.hl7.org/CodeSystem/condition-clinical"
                        }
                    ]
                },
                "code": {
                    "coding": [
                        {
                            "code": "698247007",
                            "display": "Cardiac arrhythmia",
                            "system": "http://snomed.info/sct"
                        }
                    ]
                },
                "recordedDate": "2020-11-17T10:50:58+01:00",
                "subject": {
                    "reference": "Patient/cee5063d-5374-4cc6-ac37-52cb733804c8"
                },
                "verificationStatus": {
                    "coding": [
                        {
                            "code": "confirmed",
                            "display": "Confirmed",
                            "system": "http://terminology.hl7.org/CodeSystem/condition-ver-status"
                        },
                        {
                            "code": "410605003",
                            "display": "Confirmed present (qualifier value)",
                            "system": "http://snomed.info/sct"
                        }
                    ]
                },
                "resourceType": "Condition"
            }
        },
        {
            "request": {
                "method": "POST",
                "url": "Condition"
            },
            "resource": {
                "id": "b7784e4a-c493-4dac-80e0-fec4003ab004",
                "meta": {
                    "profile": [
                        "https://www.netzwerk-universitaetsmedizin.de/fhir/StructureDefinition/cardiovascular-diseases"
                    ]
                },
                "category": [
                    {
                        "coding": [
                            {
                                "code": "722414000",
                                "display": "Vascular medicine",
                                "system": "http://snomed.info/sct"
                            }
                        ]
                    }
                ],
                "code": {
                    "coding": [
                        {
                            "code": "84114007",
                            "display": "Heart failure",
                            "system": "http://snomed.info/sct"
                        }
                    ]
                },
                "recordedDate": "2020-11-17T10:50:58+01:00",
                "subject": {
                    "reference": "Patient/cee5063d-5374-4cc6-ac37-52cb733804c8"
                },
                "verificationStatus": {
                    "coding": [
                        {
                            "code": "refuted",
                            "display": "Refuted",
                            "system": "http://terminology.hl7.org/CodeSystem/condition-ver-status"
                        },
                        {
                            "code": "410594000",
                            "display": "Definitely NOT present (qualifier value)",
                            "system": "http://snomed.info/sct"
                        }
                    ]
                },
                "resourceType": "Condition"
            }
        },
        {
            "request": {
                "method": "POST",
                "url": "Condition"
            },
            "resource": {
                "id": "b07e7fe9-7334-447d-8894-f606239bfbd3",
                "meta": {
                    "profile": [
                        "https://www.netzwerk-universitaetsmedizin.de/fhir/StructureDefinition/cardiovascular-diseases"
                    ]
                },
                "extension": [
                    {
                        "url": "https://www.netzwerk-universitaetsmedizin.de/fhir/StructureDefinition/uncertainty-of-presence",
                        "valueCodeableConcept": {
                            "coding": [
                                {
                                    "code": "261665006",
                                    "display": "Unknown (qualifier value)",
                                    "system": "http://snomed.info/sct"
                                }
                            ],
                            "text": "Presence of condition is unknown."
                        }
                    }
                ],
                "category": [
                    {
                        "coding": [
                            {
                                "code": "722414000",
                                "display": "Vascular medicine",
                                "system": "http://snomed.info/sct"
                            }
                        ]
                    }
                ],
                "code": {
                    "coding": [
                        {
                            "code": "399957001",
                            "display": "Peripheral arterial occlusive disease",
                            "system": "http://snomed.info/sct"
                        }
                    ]
                },
                "recordedDate": "2020-11-17T10:50:58+01:00",
                "subject": {
                    "reference": "Patient/cee5063d-5374-4cc6-ac37-52cb733804c8"
                },
                "resourceType": "Condition"
            }
        },
        {
            "request": {
                "method": "POST",
                "url": "Condition"
            },
            "resource": {
                "id": "8b95bbf4-040f-4ad0-a94f-088cb21cfcd6",
                "meta": {
                    "profile": [
                        "https://www.netzwerk-universitaetsmedizin.de/fhir/StructureDefinition/cardiovascular-diseases"
                    ]
                },
                "category": [
                    {
                        "coding": [
                            {
                                "code": "722414000",
                                "display": "Vascular medicine",
                                "system": "http://snomed.info/sct"
                            }
                        ]
                    }
                ],
                "code": {
                    "coding": [
                        {
                            "code": "416940007:363589002=81266008",
                            "display": "History of heart revascularization",
                            "system": "http://snomed.info/sct"
                        }
                    ]
                },
                "recordedDate": "2020-11-17T10:50:58+01:00",
                "subject": {
                    "reference": "Patient/cee5063d-5374-4cc6-ac37-52cb733804c8"
                },
                "verificationStatus": {
                    "coding": [
                        {
                            "code": "refuted",
                            "display": "Refuted",
                            "system": "http://terminology.hl7.org/CodeSystem/condition-ver-status"
                        },
                        {
                            "code": "410594000",
                            "display": "Definitely NOT present (qualifier value)",
                            "system": "http://snomed.info/sct"
                        }
                    ]
                },
                "resourceType": "Condition"
            }
        },
        {
            "request": {
                "method": "POST",
                "url": "Condition"
            },
            "resource": {
                "id": "43d304aa-6287-4924-9661-3c5aa4a74299",
                "meta": {
                    "profile": [
                        "https://www.netzwerk-universitaetsmedizin.de/fhir/StructureDefinition/cardiovascular-diseases"
                    ]
                },
                "category": [
                    {
                        "coding": [
                            {
                                "code": "722414000",
                                "display": "Vascular medicine",
                                "system": "http://snomed.info/sct"
                            }
                        ]
                    }
                ],
                "clinicalStatus": {
                    "coding": [
                        {
                            "code": "active",
                            "display": "Active",
                            "system": "http://terminology.hl7.org/CodeSystem/condition-clinical"
                        }
                    ]
                },
                "code": {
                    "coding": [
                        {
                            "code": "53741008",
                            "display": "Coronary arteriosclerosis",
                            "system": "http://snomed.info/sct"
                        }
                    ]
                },
                "recordedDate": "2020-11-17T10:50:58+01:00",
                "subject": {
                    "reference": "Patient/cee5063d-5374-4cc6-ac37-52cb733804c8"
                },
                "verificationStatus": {
                    "coding": [
                        {
                            "code": "confirmed",
                            "display": "Confirmed",
                            "system": "http://terminology.hl7.org/CodeSystem/condition-ver-status"
                        },
                        {
                            "code": "410605003",
                            "display": "Confirmed present (qualifier value)",
                            "system": "http://snomed.info/sct"
                        }
                    ]
                },
                "resourceType": "Condition"
            }
        },
        {
            "request": {
                "method": "POST",
                "url": "Condition"
            },
            "resource": {
                "id": "24f665f3-f441-4ad9-9134-5b778dcdb861",
                "meta": {
                    "profile": [
                        "https://www.netzwerk-universitaetsmedizin.de/fhir/StructureDefinition/cardiovascular-diseases"
                    ]
                },
                "category": [
                    {
                        "coding": [
                            {
                                "code": "722414000",
                                "display": "Vascular medicine",
                                "system": "http://snomed.info/sct"
                            }
                        ]
                    }
                ],
                "clinicalStatus": {
                    "coding": [
                        {
                            "code": "active",
                            "display": "Active",
                            "system": "http://terminology.hl7.org/CodeSystem/condition-clinical"
                        }
                    ]
                },
                "code": {
                    "coding": [
                        {
                            "code": "64586002",
                            "display": "Carotid artery stenosis",
                            "system": "http://snomed.info/sct"
                        }
                    ]
                },
                "recordedDate": "2020-11-17T10:50:58+01:00",
                "subject": {
                    "reference": "Patient/cee5063d-5374-4cc6-ac37-52cb733804c8"
                },
                "verificationStatus": {
                    "coding": [
                        {
                            "code": "confirmed",
                            "display": "Confirmed",
                            "system": "http://terminology.hl7.org/CodeSystem/condition-ver-status"
                        },
                        {
                            "code": "410605003",
                            "display": "Confirmed present (qualifier value)",
                            "system": "http://snomed.info/sct"
                        }
                    ]
                },
                "resourceType": "Condition"
            }
        },
        {
            "request": {
                "method": "POST",
                "url": "Condition"
            },
            "resource": {
                "id": "6253ccc9-86b4-4a2d-b370-32050b55f0a7",
                "meta": {
                    "profile": [
                        "https://www.netzwerk-universitaetsmedizin.de/fhir/StructureDefinition/chronic-liver-diseases"
                    ]
                },
                "category": [
                    {
                        "coding": [
                            {
                                "code": "408472002",
                                "display": "Hepatology",
                                "system": "http://snomed.info/sct"
                            }
                        ]
                    }
                ],
                "code": {
                    "coding": [
                        {
                            "code": "328383001",
                            "display": "Chronic liver disease",
                            "system": "http://snomed.info/sct"
                        }
                    ]
                },
                "recordedDate": "2020-11-17T10:50:58+01:00",
                "subject": {
                    "reference": "Patient/cee5063d-5374-4cc6-ac37-52cb733804c8"
                },
                "verificationStatus": {
                    "coding": [
                        {
                            "code": "refuted",
                            "display": "Refuted",
                            "system": "http://terminology.hl7.org/CodeSystem/condition-ver-status"
                        },
                        {
                            "code": "410594000",
                            "display": "Definitely NOT present (qualifier value)",
                            "system": "http://snomed.info/sct"
                        }
                    ]
                },
                "resourceType": "Condition"
            }
        },
        {
            "request": {
                "method": "POST",
                "url": "Condition"
            },
            "resource": {
                "id": "66ee24de-bfa5-449e-9780-0bf5a8701d70",
                "meta": {
                    "profile": [
                        "https://www.netzwerk-universitaetsmedizin.de/fhir/StructureDefinition/rheumatological-immunological-diseases"
                    ]
                },
                "category": [
                    {
                        "coding": [
                            {
                                "code": "394810000",
                                "display": "Rheumatology",
                                "system": "http://snomed.info/sct"
                            },
                            {
                                "code": "408480009",
                                "display": "Clinical immunology",
                                "system": "http://snomed.info/sct"
                            }
                        ]
                    }
                ],
                "code": {
                    "coding": [
                        {
                            "code": "396332003",
                            "display": "Rheumatism",
                            "system": "http://snomed.info/sct"
                        }
                    ]
                },
                "recordedDate": "2020-11-17T10:50:58+01:00",
                "subject": {
                    "reference": "Patient/cee5063d-5374-4cc6-ac37-52cb733804c8"
                },
                "verificationStatus": {
                    "coding": [
                        {
                            "code": "refuted",
                            "display": "Refuted",
                            "system": "http://terminology.hl7.org/CodeSystem/condition-ver-status"
                        },
                        {
                            "code": "410594000",
                            "display": "Definitely NOT present (qualifier value)",
                            "system": "http://snomed.info/sct"
                        }
                    ]
                },
                "resourceType": "Condition"
            }
        },
        {
            "request": {
                "method": "POST",
                "url": "Condition"
            },
            "resource": {
                "id": "d6441dce-1454-41cc-9cfd-fe4707a3278f",
                "meta": {
                    "profile": [
                        "https://www.netzwerk-universitaetsmedizin.de/fhir/StructureDefinition/human-immunodeficiency-virus-infection"
                    ]
                },
                "category": [
                    {
                        "coding": [
                            {
                                "code": "394807007",
                                "display": "Infectious diseases (specialty)",
                                "system": "http://snomed.info/sct"
                            }
                        ]
                    }
                ],
                "code": {
                    "coding": [
                        {
                            "code": "86406008",
                            "display": "Human immunodeficiency virus infection",
                            "system": "http://snomed.info/sct"
                        }
                    ]
                },
                "recordedDate": "2020-11-17T10:50:58+01:00",
                "subject": {
                    "reference": "Patient/cee5063d-5374-4cc6-ac37-52cb733804c8"
                },
                "verificationStatus": {
                    "coding": [
                        {
                            "code": "refuted",
                            "display": "Refuted",
                            "system": "http://terminology.hl7.org/CodeSystem/condition-ver-status"
                        },
                        {
                            "code": "410594000",
                            "display": "Definitely NOT present (qualifier value)",
                            "system": "http://snomed.info/sct"
                        }
                    ]
                },
                "resourceType": "Condition"
            }
        },
        {
            "request": {
                "method": "POST",
                "url": "Condition"
            },
            "resource": {
                "id": "736498ca-f405-41ef-a0f9-4056758de3d9",
                "meta": {
                    "profile": [
                        "https://www.netzwerk-universitaetsmedizin.de/fhir/StructureDefinition/organ-recipient"
                    ]
                },
                "category": [
                    {
                        "coding": [
                            {
                                "code": "788415003",
                                "display": "Transplant medicine",
                                "system": "http://snomed.info/sct"
                            }
                        ]
                    }
                ],
                "code": {
                    "coding": [
                        {
                            "code": "161663000",
                            "display": "History of being a tissue or organ recipient",
                            "system": "http://snomed.info/sct"
                        }
                    ]
                },
                "recordedDate": "2020-11-17T10:50:58+01:00",
                "subject": {
                    "reference": "Patient/cee5063d-5374-4cc6-ac37-52cb733804c8"
                },
                "verificationStatus": {
                    "coding": [
                        {
                            "code": "refuted",
                            "display": "Refuted",
                            "system": "http://terminology.hl7.org/CodeSystem/condition-ver-status"
                        },
                        {
                            "code": "410594000",
                            "display": "Definitely NOT present (qualifier value)",
                            "system": "http://snomed.info/sct"
                        }
                    ]
                },
                "resourceType": "Condition"
            }
        },
        {
            "request": {
                "method": "POST",
                "url": "Condition"
            },
            "resource": {
                "id": "49f6b331-39d0-4ed0-90c8-062140ecdc62",
                "meta": {
                    "profile": [
                        "https://www.netzwerk-universitaetsmedizin.de/fhir/StructureDefinition/diabetes-mellitus"
                    ]
                },
                "extension": [
                    {
                        "url": "https://www.netzwerk-universitaetsmedizin.de/fhir/StructureDefinition/uncertainty-of-presence",
                        "valueCodeableConcept": {
                            "coding": [
                                {
                                    "code": "261665006",
                                    "display": "Unknown (qualifier value)",
                                    "system": "http://snomed.info/sct"
                                }
                            ],
                            "text": "Presence of condition is unknown."
                        }
                    }
                ],
                "category": [
                    {
                        "coding": [
                            {
                                "code": "408475000",
                                "display": "Diabetic medicine",
                                "system": "http://snomed.info/sct"
                            }
                        ]
                    }
                ],
                "code": {
                    "coding": [
                        {
                            "code": "73211009",
                            "display": "Diabetes mellitus",
                            "system": "http://snomed.info/sct"
                        }
                    ]
                },
                "recordedDate": "2020-11-17T10:50:58+01:00",
                "subject": {
                    "reference": "Patient/cee5063d-5374-4cc6-ac37-52cb733804c8"
                },
                "resourceType": "Condition"
            }
        },
        {
            "request": {
                "method": "POST",
                "url": "Condition"
            },
            "resource": {
                "id": "c0a11af9-a5ff-4a5e-bd21-be342d5a7534",
                "meta": {
                    "profile": [
                        "https://www.netzwerk-universitaetsmedizin.de/fhir/StructureDefinition/malignant-neoplastic-disease"
                    ]
                },
                "category": [
                    {
                        "coding": [
                            {
                                "code": "394593009",
                                "display": "Medical oncology (qualifier value)",
                                "system": "http://snomed.info/sct"
                            }
                        ]
                    }
                ],
                "clinicalStatus": {
                    "coding": [
                        {
                            "code": "remission",
                            "display": "Remission",
                            "system": "http://terminology.hl7.org/CodeSystem/condition-clinical"
                        }
                    ]
                },
                "code": {
                    "coding": [
                        {
                            "code": "363346000",
                            "display": "Malignant neoplastic disease",
                            "system": "http://snomed.info/sct"
                        }
                    ]
                },
                "recordedDate": "2020-11-17T10:50:58+01:00",
                "subject": {
                    "reference": "Patient/cee5063d-5374-4cc6-ac37-52cb733804c8"
                },
                "verificationStatus": {
                    "coding": [
                        {
                            "code": "confirmed",
                            "display": "Confirmed",
                            "system": "http://terminology.hl7.org/CodeSystem/condition-ver-status"
                        },
                        {
                            "code": "410605003",
                            "display": "Confirmed present (qualifier value)",
                            "system": "http://snomed.info/sct"
                        }
                    ]
                },
                "resourceType": "Condition"
            }
        },
        {
            "request": {
                "method": "PUT",
                "url": "Observation/f48a91ce-b1e9-4043-a765-50207d2a359d"
            },
            "resource": {
                "id": "f48a91ce-b1e9-4043-a765-50207d2a359d",
                "meta": {
                    "profile": [
                        "https://www.netzwerk-universitaetsmedizin.de/fhir/StructureDefinition/smoking-status"
                    ]
                },
                "category": [
                    {
                        "coding": [
                            {
                                "code": "social-history",
                                "display": "Social History",
                                "system": "http://terminology.hl7.org/CodeSystem/observation-category"
                            }
                        ]
                    }
                ],
                "code": {
                    "coding": [
                        {
                            "code": "72166-2",
                            "display": "Tobacco smoking status",
                            "system": "http://loinc.org"
                        }
                    ]
                },
                "effectiveDateTime": "2020-11-17T10:50:58+01:00",
                "status": "final",
                "subject": {
                    "reference": "Patient/cee5063d-5374-4cc6-ac37-52cb733804c8"
                },
                "valueCodeableConcept": {
                    "coding": [
                        {
                            "code": "LA18976-3",
                            "display": "Current every day smoker",
                            "system": "http://loinc.org"
                        }
                    ],
                    "text": "Patient is smoker"
                },
                "resourceType": "Observation"
            }
        },
        {
            "request": {
                "method": "POST",
                "url": "Condition"
            },
            "resource": {
                "id": "26869077-4254-473a-bacc-056da4de11ca",
                "meta": {
                    "profile": [
                        "https://www.netzwerk-universitaetsmedizin.de/fhir/StructureDefinition/chronic-neurological-mental-diseases"
                    ]
                },
                "extension": [
                    {
                        "url": "https://www.netzwerk-universitaetsmedizin.de/fhir/StructureDefinition/uncertainty-of-presence",
                        "valueCodeableConcept": {
                            "coding": [
                                {
                                    "code": "261665006",
                                    "display": "Unknown (qualifier value)",
                                    "system": "http://snomed.info/sct"
                                }
                            ],
                            "text": "Presence of condition is unknown."
                        }
                    }
                ],
                "category": [
                    {
                        "coding": [
                            {
                                "code": "394591006",
                                "display": "Neurology",
                                "system": "http://snomed.info/sct"
                            },
                            {
                                "code": "394587001",
                                "display": "Psychiatry",
                                "system": "http://snomed.info/sct"
                            }
                        ]
                    }
                ],
                "code": {
                    "coding": [
                        {
                            "code": "74732009",
                            "display": "Mental disorder",
                            "system": "http://snomed.info/sct"
                        }
                    ]
                },
                "recordedDate": "2020-11-17T10:50:58+01:00",
                "subject": {
                    "reference": "Patient/cee5063d-5374-4cc6-ac37-52cb733804c8"
                },
                "resourceType": "Condition"
            }
        },
        {
            "request": {
                "method": "POST",
                "url": "Condition"
            },
            "resource": {
                "id": "33b7fb35-32a6-4275-9807-a858c5c03b74",
                "meta": {
                    "profile": [
                        "https://www.netzwerk-universitaetsmedizin.de/fhir/StructureDefinition/chronic-neurological-mental-diseases"
                    ]
                },
                "extension": [
                    {
                        "url": "https://www.netzwerk-universitaetsmedizin.de/fhir/StructureDefinition/uncertainty-of-presence",
                        "valueCodeableConcept": {
                            "coding": [
                                {
                                    "code": "261665006",
                                    "display": "Unknown (qualifier value)",
                                    "system": "http://snomed.info/sct"
                                }
                            ],
                            "text": "Presence of condition is unknown."
                        }
                    }
                ],
                "category": [
                    {
                        "coding": [
                            {
                                "code": "394591006",
                                "display": "Neurology",
                                "system": "http://snomed.info/sct"
                            },
                            {
                                "code": "394587001",
                                "display": "Psychiatry",
                                "system": "http://snomed.info/sct"
                            }
                        ]
                    }
                ],
                "code": {
                    "coding": [
                        {
                            "code": "128283000",
                            "display": "Chronic nervous system disorder",
                            "system": "http://snomed.info/sct"
                        }
                    ]
                },
                "recordedDate": "2020-11-17T10:50:58+01:00",
                "subject": {
                    "reference": "Patient/cee5063d-5374-4cc6-ac37-52cb733804c8"
                },
                "resourceType": "Condition"
            }
        },
        {
            "request": {
                "method": "POST",
                "url": "Procedure"
            },
            "resource": {
                "id": "0611dd41-c62c-44bb-b69d-5544ac171318",
                "meta": {
                    "profile": [
                        "https://www.netzwerk-universitaetsmedizin.de/fhir/StructureDefinition/respiratory-therapies"
                    ]
                },
                "category": {
                    "coding": [
                        {
                            "code": "277132007",
                            "display": "Therapeutic procedure",
                            "system": "http://snomed.info/sct"
                        }
                    ]
                },
                "code": {
                    "coding": [
                        {
                            "code": "53950000",
                            "display": "Respiratory therapy",
                            "system": "http://snomed.info/sct"
                        }
                    ]
                },
                "performedDateTime": "2020-11-17T10:50:58+01:00",
                "status": "in-progress",
                "subject": {
                    "reference": "Patient/cee5063d-5374-4cc6-ac37-52cb733804c8"
                },
                "resourceType": "Procedure"
            }
        },
        {
            "request": {
                "method": "POST",
                "url": "Condition"
            },
            "resource": {
                "id": "4aaa861c-6697-4fb7-8598-a5d40f4acb25",
                "meta": {
                    "profile": [
                        "https://www.netzwerk-universitaetsmedizin.de/fhir/StructureDefinition/chronic-kidney-diseases"
                    ]
                },
                "extension": [
                    {
                        "url": "https://www.netzwerk-universitaetsmedizin.de/fhir/StructureDefinition/uncertainty-of-presence",
                        "valueCodeableConcept": {
                            "coding": [
                                {
                                    "code": "261665006",
                                    "display": "Unknown (qualifier value)",
                                    "system": "http://snomed.info/sct"
                                }
                            ],
                            "text": "Presence of condition is unknown."
                        }
                    }
                ],
                "category": [
                    {
                        "coding": [
                            {
                                "code": "394589003",
                                "display": "Nephrology (qualifier value)",
                                "system": "http://snomed.info/sct"
                            }
                        ]
                    }
                ],
                "code": {
                    "coding": [
                        {
                            "code": "709044004",
                            "display": "Chronic kidney disease (disorder)",
                            "system": "http://snomed.info/sct"
                        }
                    ]
                },
                "recordedDate": "2020-11-17T10:50:58+01:00",
                "subject": {
                    "reference": "Patient/cee5063d-5374-4cc6-ac37-52cb733804c8"
                },
                "resourceType": "Condition"
            }
        },
        {
            "request": {
                "method": "PUT",
                "url": "Observation/1aecfca8-b7c4-4200-a3d8-a29e8f3b25ce"
            },
            "resource": {
                "id": "1aecfca8-b7c4-4200-a3d8-a29e8f3b25ce",
                "meta": {
                    "profile": [
                        "https://www.netzwerk-universitaetsmedizin.de/fhir/StructureDefinition/history-of-travel"
                    ]
                },
                "category": [
                    {
                        "coding": [
                            {
                                "code": "social-history",
                                "system": "http://terminology.hl7.org/CodeSystem/observation-category"
                            }
                        ]
                    }
                ],
                "code": {
                    "coding": [
                        {
                            "code": "8691-8",
                            "display": "History of Travel",
                            "system": "http://loinc.org"
                        },
                        {
                            "code": "443846001",
                            "display": "Detail of history of travel (observable entity)",
                            "system": "http://snomed.info/sct"
                        }
                    ],
                    "text": "History of travel"
                },
                "component": [
                    {
                        "code": {
                            "coding": [
                                {
                                    "code": "82752-7",
                                    "display": "Date travel started",
                                    "system": "http://loinc.org"
                                }
                            ],
                            "text": "Travel start date"
                        },
                        "valueDateTime": "2020-10-27"
                    },
                    {
                        "code": {
                            "coding": [
                                {
                                    "code": "94651-7",
                                    "display": "Country of travel",
                                    "system": "http://loinc.org"
                                }
                            ],
                            "text": "Country of travel"
                        },
                        "valueCodeableConcept": {
                            "coding": [
                                {
                                    "code": "DE",
                                    "display": "Germany",
                                    "system": "urn:iso:std:iso:3166"
                                }
                            ],
                            "text": "Germany"
                        }
                    },
                    {
                        "code": {
                            "coding": [
                                {
                                    "code": "82754-3",
                                    "display": "State of travel",
                                    "system": "http://loinc.org"
                                }
                            ],
                            "text": "State of travel"
                        },
                        "valueCodeableConcept": {
                            "coding": [
                                {
                                    "code": "DE-BW",
                                    "display": "Baden-W\u00fcrttemberg",
                                    "system": "urn:iso:std:iso:3166-2:de"
                                }
                            ],
                            "text": "Baden-W\u00fcrttemberg"
                        }
                    },
                    {
                        "code": {
                            "coding": [
                                {
                                    "code": "94653-3",
                                    "display": "City of travel",
                                    "system": "http://loinc.org"
                                }
                            ],
                            "text": "City of travel"
                        },
                        "valueString": "Karlsruhe"
                    },
                    {
                        "code": {
                            "coding": [
                                {
                                    "code": "91560-3",
                                    "display": "Date of departure from travel destination",
                                    "system": "http://loinc.org"
                                }
                            ],
                            "text": "Travel end date"
                        },
                        "valueDateTime": "2020-11-10"
                    }
                ],
                "effectiveDateTime": "2020-11-17T10:50:58+01:00",
                "identifier": [
                    {
                        "assigner": {
                            "reference": "Organization/Charit\u00e9"
                        },
                        "system": "https://www.charite.de/fhir/CodeSystem/observation-identifiers",
                        "type": {
                            "coding": [
                                {
                                    "code": "OBI",
                                    "system": "http://terminology.hl7.org/CodeSystem/v2-0203"
                                }
                            ]
                        },
                        "value": "8691-8_HistoryOfTravel"
                    }
                ],
                "status": "final",
                "subject": {
                    "reference": "Patient/cee5063d-5374-4cc6-ac37-52cb733804c8"
                },
                "valueCodeableConcept": {
                    "coding": [
                        {
                            "code": "373066001",
                            "display": "Yes (qualifier value)",
                            "system": "http://snomed.info/sct"
                        }
                    ]
                },
                "resourceType": "Observation"
            }
        },
        {
            "request": {
                "method": "POST",
                "url": "Condition"
            },
            "resource": {
                "id": "15f887bd-83b1-487b-8772-77fd97425770",
                "meta": {
                    "profile": [
                        "https://www.netzwerk-universitaetsmedizin.de/fhir/StructureDefinition/gastrointestinal-ulcers"
                    ]
                },
                "category": [
                    {
                        "coding": [
                            {
                                "code": "394584008",
                                "display": "Gastroenterology",
                                "system": "http://snomed.info/sct"
                            }
                        ]
                    }
                ],
                "clinicalStatus": {
                    "coding": [
                        {
                            "code": "active",
                            "display": "Active",
                            "system": "http://terminology.hl7.org/CodeSystem/condition-clinical"
                        }
                    ]
                },
                "code": {
                    "coding": [
                        {
                            "code": "40845000",
                            "display": "Gastrointestinal ulcer",
                            "system": "http://snomed.info/sct"
                        }
                    ]
                },
                "recordedDate": "2020-11-17T10:50:58+01:00",
                "subject": {
                    "reference": "Patient/cee5063d-5374-4cc6-ac37-52cb733804c8"
                },
                "verificationStatus": {
                    "coding": [
                        {
                            "code": "confirmed",
                            "display": "Confirmed",
                            "system": "http://terminology.hl7.org/CodeSystem/condition-ver-status"
                        },
                        {
                            "code": "410605003",
                            "display": "Confirmed present (qualifier value)",
                            "system": "http://snomed.info/sct"
                        }
                    ]
                },
                "resourceType": "Condition"
            }
        },
        {
            "request": {
                "method": "POST",
                "url": "Immunization"
            },
            "resource": {
                "id": "27c40ebe-e068-4464-849d-d28fe10888b5",
                "meta": {
                    "profile": [
                        "https://www.netzwerk-universitaetsmedizin.de/fhir/StructureDefinition/immunization"
                    ]
                },
                "occurrenceDateTime": "2020-10-06",
                "patient": {
                    "reference": "Patient/cee5063d-5374-4cc6-ac37-52cb733804c8"
                },
                "protocolApplied": [
                    {
                        "doseNumberString": "unknown",
                        "targetDisease": [
                            {
                                "coding": [
                                    {
                                        "code": "16814004",
                                        "display": "Pneumococcal infectious disease",
                                        "system": "http://snomed.info/sct"
                                    }
                                ]
                            }
                        ]
                    }
                ],
                "status": "completed",
                "vaccineCode": {
                    "coding": [
                        {
                            "code": "J07AL",
                            "display": "Pneumokokken-Impfstoffe",
                            "system": "http://fhir.de/CodeSystem/dimdi/atc"
                        },
                        {
                            "code": "333598008",
                            "display": "Pneumococcal vaccine",
                            "system": "http://snomed.info/sct"
                        }
                    ]
                },
                "resourceType": "Immunization"
            }
        },
        {
            "request": {
                "method": "POST",
                "url": "Consent"
            },
            "resource": {
                "id": "01560bf3-3e55-46f7-ace3-2e76e3c3abe1",
                "meta": {
                    "profile": [
                        "https://www.netzwerk-universitaetsmedizin.de/fhir/StructureDefinition/do-not-resuscitate-order"
                    ]
                },
                "category": [
                    {
                        "coding": [
                            {
                                "code": "dnr",
                                "display": "Do Not Resuscitate",
                                "system": "http://terminology.hl7.org/CodeSystem/consentcategorycodes"
                            }
                        ]
                    }
                ],
                "patient": {
                    "reference": "Patient/cee5063d-5374-4cc6-ac37-52cb733804c8"
                },
                "policy": [
                    {
                        "uri": "https://www.aerzteblatt.de/archiv/65440/DNR-Anordnungen-Das-fehlende-Bindeglied"
                    }
                ],
                "provision": {
                    "code": [
                        {
                            "coding": [
                                {
                                    "code": "261665006",
                                    "display": "Unknown (qualifier value)",
                                    "system": "http://snomed.info/sct"
                                }
                            ]
                        }
                    ]
                },
                "scope": {
                    "coding": [
                        {
                            "code": "adr",
                            "display": "Advanced Care Directive",
                            "system": "http://terminology.hl7.org/CodeSystem/consentscope"
                        }
                    ]
                },
                "status": "active",
                "resourceType": "Consent"
            }
        },
        {
            "request": {
                "method": "PUT",
                "url": "DiagnosticReport/36b5d538-b9b3-4c5c-8fe7-25279221433c"
            },
            "resource": {
                "id": "36b5d538-b9b3-4c5c-8fe7-25279221433c",
                "meta": {
                    "profile": [
                        "https://www.netzwerk-universitaetsmedizin.de/fhir/StructureDefinition/diagnostic-report-radiology"
                    ]
                },
                "category": [
                    {
                        "coding": [
                            {
                                "code": "18726-0",
                                "display": "Radiology studies (set)",
                                "system": "http://loinc.org"
                            },
                            {
                                "code": "RAD",
                                "display": "Radiology",
                                "system": "http://terminology.hl7.org/CodeSystem/v2-0074"
                            }
                        ]
                    }
                ],
                "code": {
                    "coding": [
                        {
                            "code": "18748-4",
                            "display": "Diagnostic imaging study",
                            "system": "http://loinc.org"
                        }
                    ]
                },
                "conclusion": "Normalbefund",
                "conclusionCode": [
                    {
                        "coding": [
                            {
                                "code": "118247008:363713009=17621005",
                                "display": "|Radiologic finding (finding)|:|Has interpretation (attribute)|=|Normal (qualifier value)|",
                                "system": "http://snomed.info/sct"
                            }
                        ]
                    }
                ],
                "effectiveDateTime": "2020-11-17T10:50:58+01:00",
                "status": "final",
                "subject": {
                    "reference": "Patient/cee5063d-5374-4cc6-ac37-52cb733804c8"
                },
                "resourceType": "DiagnosticReport"
            }
        },
        {
            "request": {
                "method": "POST",
                "url": "Procedure"
            },
            "resource": {
                "id": "f30029c1-3f5a-4949-b580-dd58a06c0335",
                "meta": {
                    "profile": [
                        "https://www.netzwerk-universitaetsmedizin.de/fhir/StructureDefinition/radiology-procedures"
                    ]
                },
                "bodySite": [
                    {
                        "coding": [
                            {
                                "code": "39607008",
                                "display": "Lung structure (body structure)",
                                "system": "http://snomed.info/sct"
                            }
                        ]
                    }
                ],
                "category": {
                    "coding": [
                        {
                            "code": "103693007",
                            "display": "Diagnostic procedure (procedure)",
                            "system": "http://snomed.info/sct"
                        }
                    ]
                },
                "code": {
                    "coding": [
                        {
                            "code": "168537006",
                            "display": "Plain radiography",
                            "system": "http://snomed.info/sct"
                        },
                        {
                            "code": "RG",
                            "display": "Radiographic imaging",
                            "system": "http://dicom.nema.org/resources/ontology/DCM"
                        }
                    ],
                    "text": "Chest x-ray"
                },
                "performedDateTime": "2020-11-17T10:50:58+01:00",
                "report": [
                    {
                        "reference": "DiagnosticReport/36b5d538-b9b3-4c5c-8fe7-25279221433c"
                    }
                ],
                "status": "completed",
                "subject": {
                    "reference": "Patient/cee5063d-5374-4cc6-ac37-52cb733804c8"
                },
                "resourceType": "Procedure"
            }
        },
        {
            "request": {
                "method": "POST",
                "url": "Procedure"
            },
            "resource": {
                "id": "5a939200-ecf2-4b3e-a879-bb33622e35df",
                "meta": {
                    "profile": [
                        "https://www.netzwerk-universitaetsmedizin.de/fhir/StructureDefinition/radiology-procedures"
                    ]
                },
                "bodySite": [
                    {
                        "coding": [
                            {
                                "code": "39607008",
                                "display": "Lung structure (body structure)",
                                "system": "http://snomed.info/sct"
                            }
                        ]
                    }
                ],
                "category": {
                    "coding": [
                        {
                            "code": "103693007",
                            "display": "Diagnostic procedure (procedure)",
                            "system": "http://snomed.info/sct"
                        }
                    ]
                },
                "code": {
                    "coding": [
                        {
                            "code": "77477000",
                            "display": "Computerized axial tomography (procedure)",
                            "system": "http://snomed.info/sct"
                        },
                        {
                            "code": "CT",
                            "display": "Computed Tomography",
                            "system": "http://dicom.nema.org/resources/ontology/DCM"
                        }
                    ],
                    "text": "Computed Tomography"
                },
                "performedDateTime": "2020-11-17T10:50:58+01:00",
                "report": [
                    {
                        "reference": "DiagnosticReport/36b5d538-b9b3-4c5c-8fe7-25279221433c"
                    }
                ],
                "status": "completed",
                "subject": {
                    "reference": "Patient/cee5063d-5374-4cc6-ac37-52cb733804c8"
                },
                "resourceType": "Procedure"
            }
        },
        {
            "request": {
                "method": "POST",
                "url": "Procedure"
            },
            "resource": {
                "id": "1ce7d52d-3788-45af-b140-87e9967d9b5a",
                "meta": {
                    "profile": [
                        "https://www.netzwerk-universitaetsmedizin.de/fhir/StructureDefinition/radiology-procedures"
                    ]
                },
                "bodySite": [
                    {
                        "coding": [
                            {
                                "code": "39607008",
                                "display": "Lung structure (body structure)",
                                "system": "http://snomed.info/sct"
                            }
                        ]
                    }
                ],
                "category": {
                    "coding": [
                        {
                            "code": "103693007",
                            "display": "Diagnostic procedure (procedure)",
                            "system": "http://snomed.info/sct"
                        }
                    ]
                },
                "code": {
                    "coding": [
                        {
                            "code": "16310003",
                            "display": "Diagnostic ultrasonography (procedure)",
                            "system": "http://snomed.info/sct"
                        },
                        {
                            "code": "US",
                            "display": "Ultrasound",
                            "system": "http://dicom.nema.org/resources/ontology/DCM"
                        }
                    ],
                    "text": "Ultrasound"
                },
                "performedDateTime": "2020-11-17T10:50:58+01:00",
                "report": [
                    {
                        "reference": "DiagnosticReport/36b5d538-b9b3-4c5c-8fe7-25279221433c"
                    }
                ],
                "status": "completed",
                "subject": {
                    "reference": "Patient/cee5063d-5374-4cc6-ac37-52cb733804c8"
                },
                "resourceType": "Procedure"
            }
        },
        {
            "request": {
                "method": "PUT",
                "url": "Observation/9b1e4d96-1a56-4c73-9cee-cbf1950a369e"
            },
            "resource": {
                "id": "9b1e4d96-1a56-4c73-9cee-cbf1950a369e",
                "meta": {
                    "profile": [
                        "https://www.netzwerk-universitaetsmedizin.de/fhir/StructureDefinition/known-exposure"
                    ]
                },
                "category": [
                    {
                        "coding": [
                            {
                                "code": "social-history",
                                "system": "http://terminology.hl7.org/CodeSystem/observation-category"
                            }
                        ]
                    }
                ],
                "code": {
                    "coding": [
                        {
                            "code": "88636-6",
                            "display": "Known exposure [Identifier]",
                            "system": "http://loinc.org"
                        }
                    ],
                    "text": "Known exposure"
                },
                "effectiveDateTime": "2020-11-14",
                "identifier": [
                    {
                        "assigner": {
                            "reference": "Organization/Charit\u00e9"
                        },
                        "system": "https://www.charite.de/fhir/CodeSystem/observation-identifiers",
                        "type": {
                            "coding": [
                                {
                                    "code": "OBI",
                                    "system": "http://terminology.hl7.org/CodeSystem/v2-0203"
                                }
                            ]
                        },
                        "value": "88636-6_KnownExposure"
                    }
                ],
                "status": "final",
                "subject": {
                    "reference": "Patient/cee5063d-5374-4cc6-ac37-52cb733804c8"
                },
                "valueCodeableConcept": {
                    "coding": [
                        {
                            "code": "840546002",
                            "display": "Exposure to severe acute respiratory syndrome coronavirus 2 (event)",
                            "system": "http://snomed.info/sct"
                        }
                    ]
                },
                "resourceType": "Observation"
            }
        },
        {
            "request": {
                "method": "POST",
                "url": "Condition"
            },
            "resource": {
                "id": "8f65d1b5-0c07-4c5f-8a77-cd414f1c93e7",
                "meta": {
                    "profile": [
                        "https://www.netzwerk-universitaetsmedizin.de/fhir/StructureDefinition/complications-covid-19"
                    ]
                },
                "category": [
                    {
                        "coding": [
                            {
                                "code": "116223007",
                                "display": "Complication (disorder)",
                                "system": "http://snomed.info/sct"
                            }
                        ]
                    }
                ],
                "clinicalStatus": {
                    "coding": [
                        {
                            "code": "active",
                            "display": "Active",
                            "system": "http://terminology.hl7.org/CodeSystem/condition-clinical"
                        }
                    ]
                },
                "code": {
                    "coding": [
                        {
                            "code": "128601007",
                            "display": "Infectious disease of lung (disorder)",
                            "system": "http://snomed.info/sct"
                        }
                    ]
                },
                "recordedDate": "2020-11-17T10:50:58+01:00",
                "subject": {
                    "reference": "Patient/cee5063d-5374-4cc6-ac37-52cb733804c8"
                },
                "verificationStatus": {
                    "coding": [
                        {
                            "code": "confirmed",
                            "display": "Confirmed",
                            "system": "http://terminology.hl7.org/CodeSystem/condition-ver-status"
                        },
                        {
                            "code": "410605003",
                            "display": "Confirmed present (qualifier value)",
                            "system": "http://snomed.info/sct"
                        }
                    ]
                },
                "resourceType": "Condition"
            }
        },
        {
            "request": {
                "method": "POST",
                "url": "Condition"
            },
            "resource": {
                "id": "716538ef-a695-471e-a3ca-4b65c7031e2f",
                "meta": {
                    "profile": [
                        "https://www.netzwerk-universitaetsmedizin.de/fhir/StructureDefinition/complications-covid-19"
                    ]
                },
                "category": [
                    {
                        "coding": [
                            {
                                "code": "116223007",
                                "display": "Complication (disorder)",
                                "system": "http://snomed.info/sct"
                            }
                        ]
                    }
                ],
                "clinicalStatus": {
                    "coding": [
                        {
                            "code": "active",
                            "display": "Active",
                            "system": "http://terminology.hl7.org/CodeSystem/condition-clinical"
                        }
                    ]
                },
                "code": {
                    "coding": [
                        {
                            "code": "434156008",
                            "display": "Infectious agent in bloodstream (finding)",
                            "system": "http://snomed.info/sct"
                        }
                    ]
                },
                "recordedDate": "2020-11-17T10:50:58+01:00",
                "subject": {
                    "reference": "Patient/cee5063d-5374-4cc6-ac37-52cb733804c8"
                },
                "verificationStatus": {
                    "coding": [
                        {
                            "code": "confirmed",
                            "display": "Confirmed",
                            "system": "http://terminology.hl7.org/CodeSystem/condition-ver-status"
                        },
                        {
                            "code": "410605003",
                            "display": "Confirmed present (qualifier value)",
                            "system": "http://snomed.info/sct"
                        }
                    ]
                },
                "resourceType": "Condition"
            }
        },
        {
            "request": {
                "method": "POST",
                "url": "Condition"
            },
            "resource": {
                "id": "7af6df33-b4bb-437c-9b08-8b790350647b",
                "meta": {
                    "profile": [
                        "https://www.netzwerk-universitaetsmedizin.de/fhir/StructureDefinition/complications-covid-19"
                    ]
                },
                "category": [
                    {
                        "coding": [
                            {
                                "code": "116223007",
                                "display": "Complication (disorder)",
                                "system": "http://snomed.info/sct"
                            }
                        ]
                    }
                ],
                "code": {
                    "coding": [
                        {
                            "code": "111293003",
                            "display": "Venous thrombosis (disorder)",
                            "system": "http://snomed.info/sct"
                        }
                    ]
                },
                "recordedDate": "2020-11-17T10:50:58+01:00",
                "subject": {
                    "reference": "Patient/cee5063d-5374-4cc6-ac37-52cb733804c8"
                },
                "verificationStatus": {
                    "coding": [
                        {
                            "code": "refuted",
                            "display": "Refuted",
                            "system": "http://terminology.hl7.org/CodeSystem/condition-ver-status"
                        },
                        {
                            "code": "410594000",
                            "display": "Definitely NOT present (qualifier value)",
                            "system": "http://snomed.info/sct"
                        }
                    ]
                },
                "resourceType": "Condition"
            }
        },
        {
            "request": {
                "method": "POST",
                "url": "Condition"
            },
            "resource": {
                "id": "99ac4230-a5b8-4523-8ca8-4d8454afcdc4",
                "meta": {
                    "profile": [
                        "https://www.netzwerk-universitaetsmedizin.de/fhir/StructureDefinition/complications-covid-19"
                    ]
                },
                "category": [
                    {
                        "coding": [
                            {
                                "code": "116223007",
                                "display": "Complication (disorder)",
                                "system": "http://snomed.info/sct"
                            }
                        ]
                    }
                ],
                "code": {
                    "coding": [
                        {
                            "code": "59282003",
                            "display": "Pulmonary embolism (disorder)",
                            "system": "http://snomed.info/sct"
                        }
                    ]
                },
                "recordedDate": "2020-11-17T10:50:58+01:00",
                "subject": {
                    "reference": "Patient/cee5063d-5374-4cc6-ac37-52cb733804c8"
                },
                "verificationStatus": {
                    "coding": [
                        {
                            "code": "refuted",
                            "display": "Refuted",
                            "system": "http://terminology.hl7.org/CodeSystem/condition-ver-status"
                        },
                        {
                            "code": "410594000",
                            "display": "Definitely NOT present (qualifier value)",
                            "system": "http://snomed.info/sct"
                        }
                    ]
                },
                "resourceType": "Condition"
            }
        },
        {
            "request": {
                "method": "POST",
                "url": "Condition"
            },
            "resource": {
                "id": "d970faf4-4916-48c1-8652-fcfa31b8857d",
                "meta": {
                    "profile": [
                        "https://www.netzwerk-universitaetsmedizin.de/fhir/StructureDefinition/complications-covid-19"
                    ]
                },
                "extension": [
                    {
                        "url": "https://www.netzwerk-universitaetsmedizin.de/fhir/StructureDefinition/uncertainty-of-presence",
                        "valueCodeableConcept": {
                            "coding": [
                                {
                                    "code": "261665006",
                                    "display": "Unknown (qualifier value)",
                                    "system": "http://snomed.info/sct"
                                }
                            ],
                            "text": "Presence of condition is unknown."
                        }
                    }
                ],
                "category": [
                    {
                        "coding": [
                            {
                                "code": "116223007",
                                "display": "Complication (disorder)",
                                "system": "http://snomed.info/sct"
                            }
                        ]
                    }
                ],
                "code": {
                    "coding": [
                        {
                            "code": "230690007",
                            "display": "Cerebrovascular accident (disorder)",
                            "system": "http://snomed.info/sct"
                        }
                    ]
                },
                "recordedDate": "2020-11-17T10:50:58+01:00",
                "subject": {
                    "reference": "Patient/cee5063d-5374-4cc6-ac37-52cb733804c8"
                },
                "resourceType": "Condition"
            }
        },
        {
            "request": {
                "method": "POST",
                "url": "Condition"
            },
            "resource": {
                "id": "bff00834-f854-48a8-8303-a9f102b76219",
                "meta": {
                    "profile": [
                        "https://www.netzwerk-universitaetsmedizin.de/fhir/StructureDefinition/complications-covid-19"
                    ]
                },
                "category": [
                    {
                        "coding": [
                            {
                                "code": "116223007",
                                "display": "Complication (disorder)",
                                "system": "http://snomed.info/sct"
                            }
                        ]
                    }
                ],
                "code": {
                    "coding": [
                        {
                            "code": "22298006",
                            "display": "Myocardial infarction (disorder)",
                            "system": "http://snomed.info/sct"
                        }
                    ]
                },
                "recordedDate": "2020-11-17T10:50:58+01:00",
                "subject": {
                    "reference": "Patient/cee5063d-5374-4cc6-ac37-52cb733804c8"
                },
                "verificationStatus": {
                    "coding": [
                        {
                            "code": "refuted",
                            "display": "Refuted",
                            "system": "http://terminology.hl7.org/CodeSystem/condition-ver-status"
                        },
                        {
                            "code": "410594000",
                            "display": "Definitely NOT present (qualifier value)",
                            "system": "http://snomed.info/sct"
                        }
                    ]
                },
                "resourceType": "Condition"
            }
        },
        {
            "request": {
                "method": "POST",
                "url": "Condition"
            },
            "resource": {
                "id": "8f14527a-8f32-47f9-9eac-d7404aa9c2a5",
                "meta": {
                    "profile": [
                        "https://www.netzwerk-universitaetsmedizin.de/fhir/StructureDefinition/complications-covid-19"
                    ]
                },
                "category": [
                    {
                        "coding": [
                            {
                                "code": "116223007",
                                "display": "Complication (disorder)",
                                "system": "http://snomed.info/sct"
                            }
                        ]
                    }
                ],
                "clinicalStatus": {
                    "coding": [
                        {
                            "code": "active",
                            "display": "Active",
                            "system": "http://terminology.hl7.org/CodeSystem/condition-clinical"
                        }
                    ]
                },
                "code": {
                    "coding": [
                        {
                            "code": "129561000119108",
                            "display": "Pre-renal acute kidney injury (disorder)",
                            "system": "http://snomed.info/sct"
                        }
                    ]
                },
                "recordedDate": "2020-11-17T10:50:58+01:00",
                "subject": {
                    "reference": "Patient/cee5063d-5374-4cc6-ac37-52cb733804c8"
                },
                "verificationStatus": {
                    "coding": [
                        {
                            "code": "confirmed",
                            "display": "Confirmed",
                            "system": "http://terminology.hl7.org/CodeSystem/condition-ver-status"
                        },
                        {
                            "code": "410605003",
                            "display": "Confirmed present (qualifier value)",
                            "system": "http://snomed.info/sct"
                        }
                    ]
                },
                "resourceType": "Condition"
            }
        },
        {
            "request": {
                "method": "POST",
                "url": "Condition"
            },
            "resource": {
                "id": "7fdd9ea6-e001-4bf1-ac8e-af2e63173e5a",
                "meta": {
                    "profile": [
                        "https://www.netzwerk-universitaetsmedizin.de/fhir/StructureDefinition/diagnosis-covid-19"
                    ]
                },
                "category": [
                    {
                        "coding": [
                            {
                                "code": "394807007",
                                "display": "Infectious diseases (specialty) (qualifier value)",
                                "system": "http://snomed.info/sct"
                            }
                        ]
                    }
                ],
                "clinicalStatus": {
                    "coding": [
                        {
                            "code": "active",
                            "display": "Active",
                            "system": "http://terminology.hl7.org/CodeSystem/condition-clinical"
                        }
                    ]
                },
                "code": {
                    "coding": [
                        {
                            "code": "840539006",
                            "display": "Disease caused by Severe acute respiratory syndrome coronavirus 2 (disorder)",
                            "system": "http://snomed.info/sct"
                        }
                    ]
                },
                "recordedDate": "2020-11-17T10:50:58+01:00",
                "stage": [
                    {
                        "summary": {
                            "coding": [
                                {
                                    "code": "399166001",
                                    "display": "Fatal (qualifier value)",
                                    "system": "http://snomed.info/sct"
                                }
                            ],
                            "text": "Dead"
                        },
                        "type": {
                            "coding": [
                                {
                                    "code": "88859-4",
                                    "display": "Disease stage score for risk calculation",
                                    "system": "http://loinc.org"
                                }
                            ]
                        }
                    }
                ],
                "subject": {
                    "reference": "Patient/cee5063d-5374-4cc6-ac37-52cb733804c8"
                },
                "verificationStatus": {
                    "coding": [
                        {
                            "code": "confirmed",
                            "display": "Confirmed",
                            "system": "http://terminology.hl7.org/CodeSystem/condition-ver-status"
                        },
                        {
                            "code": "410605003",
                            "display": "Confirmed present (qualifier value)",
                            "system": "http://snomed.info/sct"
                        }
                    ]
                },
                "resourceType": "Condition"
            }
        },
        {
            "request": {
                "method": "PUT",
                "url": "Observation/2b0cab1e-7665-47dc-949d-ed738bbff20e"
            },
            "resource": {
                "id": "2b0cab1e-7665-47dc-949d-ed738bbff20e",
                "meta": {
                    "profile": [
                        "https://www.medizininformatik-initiative.de/fhir/core/modul-labor/StructureDefinition/ObservationLab"
                    ]
                },
                "category": [
                    {
                        "coding": [
                            {
                                "code": "26436-6",
                                "system": "http://loinc.org"
                            },
                            {
                                "code": "laboratory",
                                "system": "http://terminology.hl7.org/CodeSystem/observation-category"
                            }
                        ]
                    }
                ],
                "code": {
                    "coding": [
                        {
                            "code": "1988-5",
                            "display": "C reactive protein [Mass/volume] in Serum or Plasma",
                            "system": "http://loinc.org"
                        }
                    ],
                    "text": "CRP"
                },
                "effectiveDateTime": "2020-11-17T10:50:58+01:00",
                "identifier": [
                    {
                        "assigner": {
                            "reference": "Organization/Charit\u00e9"
                        },
                        "system": "https://www.charite.de/fhir/CodeSystem/lab-identifiers",
                        "type": {
                            "coding": [
                                {
                                    "code": "OBI",
                                    "system": "http://terminology.hl7.org/CodeSystem/v2-0203"
                                }
                            ]
                        },
                        "value": "1988-5_c-reactive-protein-mass-per-volume-in-serum-or-plasma"
                    }
                ],
                "status": "final",
                "subject": {
                    "reference": "Patient/cee5063d-5374-4cc6-ac37-52cb733804c8"
                },
                "valueQuantity": {
                    "code": "mg/L",
                    "system": "http://unitsofmeasure.org",
                    "unit": "mg/L",
                    "value": 4.2
                },
                "resourceType": "Observation"
            }
        },
        {
            "request": {
                "method": "PUT",
                "url": "Observation/ffda583f-1ea0-4a43-9d6f-87c98773a12d"
            },
            "resource": {
                "id": "ffda583f-1ea0-4a43-9d6f-87c98773a12d",
                "meta": {
                    "profile": [
                        "https://www.medizininformatik-initiative.de/fhir/core/modul-labor/StructureDefinition/ObservationLab"
                    ]
                },
                "category": [
                    {
                        "coding": [
                            {
                                "code": "26436-6",
                                "system": "http://loinc.org"
                            },
                            {
                                "code": "laboratory",
                                "system": "http://terminology.hl7.org/CodeSystem/observation-category"
                            }
                        ]
                    }
                ],
                "code": {
                    "coding": [
                        {
                            "code": "2276-4",
                            "display": "Ferritin [Mass/volume] in Serum or Plasma",
                            "system": "http://loinc.org"
                        }
                    ],
                    "text": "Ferritin"
                },
                "effectiveDateTime": "2020-11-17T10:50:58+01:00",
                "identifier": [
                    {
                        "assigner": {
                            "reference": "Organization/Charit\u00e9"
                        },
                        "system": "https://www.charite.de/fhir/CodeSystem/lab-identifiers",
                        "type": {
                            "coding": [
                                {
                                    "code": "OBI",
                                    "system": "http://terminology.hl7.org/CodeSystem/v2-0203"
                                }
                            ]
                        },
                        "value": "2276-4_ferritin-mass-per-volume-in-serum-or-plasma"
                    }
                ],
                "status": "final",
                "subject": {
                    "reference": "Patient/cee5063d-5374-4cc6-ac37-52cb733804c8"
                },
                "valueQuantity": {
                    "code": "ng/mL",
                    "system": "http://unitsofmeasure.org",
                    "unit": "ng/mL",
                    "value": 242.6
                },
                "resourceType": "Observation"
            }
        },
        {
            "request": {
                "method": "PUT",
                "url": "Observation/68710090-b285-477d-a951-9a4aa6351314"
            },
            "resource": {
                "id": "68710090-b285-477d-a951-9a4aa6351314",
                "meta": {
                    "profile": [
                        "https://www.medizininformatik-initiative.de/fhir/core/modul-labor/StructureDefinition/ObservationLab"
                    ]
                },
                "category": [
                    {
                        "coding": [
                            {
                                "code": "26436-6",
                                "system": "http://loinc.org"
                            },
                            {
                                "code": "laboratory",
                                "system": "http://terminology.hl7.org/CodeSystem/observation-category"
                            }
                        ]
                    }
                ],
                "code": {
                    "coding": [
                        {
                            "code": "1971-1",
                            "display": "Bilirubin.indirect [Mass/volume] in Serum or Plasma",
                            "system": "http://loinc.org"
                        }
                    ],
                    "text": "Bilirubin"
                },
                "effectiveDateTime": "2020-11-17T10:50:58+01:00",
                "identifier": [
                    {
                        "assigner": {
                            "reference": "Organization/Charit\u00e9"
                        },
                        "system": "https://www.charite.de/fhir/CodeSystem/lab-identifiers",
                        "type": {
                            "coding": [
                                {
                                    "code": "OBI",
                                    "system": "http://terminology.hl7.org/CodeSystem/v2-0203"
                                }
                            ]
                        },
                        "value": "1971-1_bilirubin.indirect-mass-per-volume-in-serum-or-plasma"
                    }
                ],
                "status": "final",
                "subject": {
                    "reference": "Patient/cee5063d-5374-4cc6-ac37-52cb733804c8"
                },
                "valueQuantity": {
                    "code": "mg/dL",
                    "system": "http://unitsofmeasure.org",
                    "unit": "mg/dL",
                    "value": 0.61
                },
                "resourceType": "Observation"
            }
        },
        {
            "request": {
                "method": "PUT",
                "url": "Observation/cbca094d-db99-4344-9e7e-5384c691381d"
            },
            "resource": {
                "id": "cbca094d-db99-4344-9e7e-5384c691381d",
                "meta": {
                    "profile": [
                        "https://www.medizininformatik-initiative.de/fhir/core/modul-labor/StructureDefinition/ObservationLab"
                    ]
                },
                "category": [
                    {
                        "coding": [
                            {
                                "code": "26436-6",
                                "system": "http://loinc.org"
                            },
                            {
                                "code": "laboratory",
                                "system": "http://terminology.hl7.org/CodeSystem/observation-category"
                            }
                        ]
                    }
                ],
                "code": {
                    "coding": [
                        {
                            "code": "48066-5",
                            "display": "Fibrin D-dimer DDU [Mass/volume] in Platelet poor plasma",
                            "system": "http://loinc.org"
                        }
                    ],
                    "text": "D-dimer"
                },
                "effectiveDateTime": "2020-11-17T10:50:58+01:00",
                "identifier": [
                    {
                        "assigner": {
                            "reference": "Organization/Charit\u00e9"
                        },
                        "system": "https://www.charite.de/fhir/CodeSystem/lab-identifiers",
                        "type": {
                            "coding": [
                                {
                                    "code": "OBI",
                                    "system": "http://terminology.hl7.org/CodeSystem/v2-0203"
                                }
                            ]
                        },
                        "value": "48066-5_fibrin-d-dimer-ddu-mass-per-volume-in-platelet-poor-plasma"
                    }
                ],
                "status": "final",
                "subject": {
                    "reference": "Patient/cee5063d-5374-4cc6-ac37-52cb733804c8"
                },
                "valueQuantity": {
                    "code": "ug/L{DDU}",
                    "system": "http://unitsofmeasure.org",
                    "unit": "ug/L{DDU}",
                    "value": 197
                },
                "resourceType": "Observation"
            }
        },
        {
            "request": {
                "method": "PUT",
                "url": "Observation/5e1602e0-e377-4b1a-a416-92bc85e6d1c9"
            },
            "resource": {
                "id": "5e1602e0-e377-4b1a-a416-92bc85e6d1c9",
                "meta": {
                    "profile": [
                        "https://www.medizininformatik-initiative.de/fhir/core/modul-labor/StructureDefinition/ObservationLab"
                    ]
                },
                "category": [
                    {
                        "coding": [
                            {
                                "code": "26436-6",
                                "system": "http://loinc.org"
                            },
                            {
                                "code": "laboratory",
                                "system": "http://terminology.hl7.org/CodeSystem/observation-category"
                            }
                        ]
                    }
                ],
                "code": {
                    "coding": [
                        {
                            "code": "2324-2",
                            "display": "Gamma glutamyl transferase [Enzymatic activity/volume] in Serum or Plasma",
                            "system": "http://loinc.org"
                        }
                    ],
                    "text": "Gamma glutamyl transferase"
                },
                "effectiveDateTime": "2020-11-17T10:50:58+01:00",
                "identifier": [
                    {
                        "assigner": {
                            "reference": "Organization/Charit\u00e9"
                        },
                        "system": "https://www.charite.de/fhir/CodeSystem/lab-identifiers",
                        "type": {
                            "coding": [
                                {
                                    "code": "OBI",
                                    "system": "http://terminology.hl7.org/CodeSystem/v2-0203"
                                }
                            ]
                        },
                        "value": "2324-2_gamma-glutamyl-transferase-enzymatic-activity-per-volume-in-serum-or-plasma"
                    }
                ],
                "status": "final",
                "subject": {
                    "reference": "Patient/cee5063d-5374-4cc6-ac37-52cb733804c8"
                },
                "valueQuantity": {
                    "code": "U/L",
                    "system": "http://unitsofmeasure.org",
                    "unit": "U/L",
                    "value": 21
                },
                "resourceType": "Observation"
            }
        },
        {
            "request": {
                "method": "PUT",
                "url": "Observation/0a3f4607-f21d-4a08-a06c-786a0c2a0fcf"
            },
            "resource": {
                "id": "0a3f4607-f21d-4a08-a06c-786a0c2a0fcf",
                "meta": {
                    "profile": [
                        "https://www.medizininformatik-initiative.de/fhir/core/modul-labor/StructureDefinition/ObservationLab"
                    ]
                },
                "category": [
                    {
                        "coding": [
                            {
                                "code": "26436-6",
                                "system": "http://loinc.org"
                            },
                            {
                                "code": "laboratory",
                                "system": "http://terminology.hl7.org/CodeSystem/observation-category"
                            }
                        ]
                    }
                ],
                "code": {
                    "coding": [
                        {
                            "code": "30239-8",
                            "display": "Aspartate aminotransferase [Enzymatic activity/volume] in Serum or Plasma by With P-5-P",
                            "system": "http://loinc.org"
                        }
                    ],
                    "text": "Aspartate aminotransferase"
                },
                "effectiveDateTime": "2020-11-17T10:50:58+01:00",
                "identifier": [
                    {
                        "assigner": {
                            "reference": "Organization/Charit\u00e9"
                        },
                        "system": "https://www.charite.de/fhir/CodeSystem/lab-identifiers",
                        "type": {
                            "coding": [
                                {
                                    "code": "OBI",
                                    "system": "http://terminology.hl7.org/CodeSystem/v2-0203"
                                }
                            ]
                        },
                        "value": "30239-8_aspartate-aminotransferase-enzymatic-activity-per-volume-in-serum-or-plasma-by-with-p-5-p"
                    }
                ],
                "status": "final",
                "subject": {
                    "reference": "Patient/cee5063d-5374-4cc6-ac37-52cb733804c8"
                },
                "valueQuantity": {
                    "code": "U/L",
                    "system": "http://unitsofmeasure.org",
                    "unit": "U/L",
                    "value": 35
                },
                "resourceType": "Observation"
            }
        },
        {
            "request": {
                "method": "PUT",
                "url": "Observation/62583992-ced2-4dd3-8704-bdbf8438a636"
            },
            "resource": {
                "id": "62583992-ced2-4dd3-8704-bdbf8438a636",
                "meta": {
                    "profile": [
                        "https://www.medizininformatik-initiative.de/fhir/core/modul-labor/StructureDefinition/ObservationLab"
                    ]
                },
                "category": [
                    {
                        "coding": [
                            {
                                "code": "26436-6",
                                "system": "http://loinc.org"
                            },
                            {
                                "code": "laboratory",
                                "system": "http://terminology.hl7.org/CodeSystem/observation-category"
                            }
                        ]
                    }
                ],
                "code": {
                    "coding": [
                        {
                            "code": "14804-9",
                            "display": "Lactate dehydrogenase [Enzymatic activity/volume] in Serum or Plasma by Lactate to pyruvate reaction",
                            "system": "http://loinc.org"
                        }
                    ],
                    "text": "Lactate dehydrogenase"
                },
                "effectiveDateTime": "2020-11-17T10:50:58+01:00",
                "identifier": [
                    {
                        "assigner": {
                            "reference": "Organization/Charit\u00e9"
                        },
                        "system": "https://www.charite.de/fhir/CodeSystem/lab-identifiers",
                        "type": {
                            "coding": [
                                {
                                    "code": "OBI",
                                    "system": "http://terminology.hl7.org/CodeSystem/v2-0203"
                                }
                            ]
                        },
                        "value": "14804-9_lactate-dehydrogenase-enzymatic-activity-per-volume-in-serum-or-plasma-by-lactate-to-pyruvate-reaction"
                    }
                ],
                "status": "final",
                "subject": {
                    "reference": "Patient/cee5063d-5374-4cc6-ac37-52cb733804c8"
                },
                "valueQuantity": {
                    "code": "U/L",
                    "system": "http://unitsofmeasure.org",
                    "unit": "U/L",
                    "value": 156
                },
                "resourceType": "Observation"
            }
        },
        {
            "request": {
                "method": "PUT",
                "url": "Observation/91392b0e-ed39-4d63-923a-830bdd1fe5a0"
            },
            "resource": {
                "id": "91392b0e-ed39-4d63-923a-830bdd1fe5a0",
                "meta": {
                    "profile": [
                        "https://www.medizininformatik-initiative.de/fhir/core/modul-labor/StructureDefinition/ObservationLab"
                    ]
                },
                "category": [
                    {
                        "coding": [
                            {
                                "code": "26436-6",
                                "system": "http://loinc.org"
                            },
                            {
                                "code": "laboratory",
                                "system": "http://terminology.hl7.org/CodeSystem/observation-category"
                            }
                        ]
                    }
                ],
                "code": {
                    "coding": [
                        {
                            "code": "67151-1",
                            "display": "Troponin T.cardiac [Mass/volume] in Serum or Plasma by High sensitivity method",
                            "system": "http://loinc.org"
                        }
                    ],
                    "text": "Cardiac troponin"
                },
                "effectiveDateTime": "2020-11-17T10:50:58+01:00",
                "identifier": [
                    {
                        "assigner": {
                            "reference": "Organization/Charit\u00e9"
                        },
                        "system": "https://www.charite.de/fhir/CodeSystem/lab-identifiers",
                        "type": {
                            "coding": [
                                {
                                    "code": "OBI",
                                    "system": "http://terminology.hl7.org/CodeSystem/v2-0203"
                                }
                            ]
                        },
                        "value": "67151-1_troponin-t.cardiac-mass-per-volume-in-serum-or-plasma-by-high-sensitivity-method"
                    }
                ],
                "status": "final",
                "subject": {
                    "reference": "Patient/cee5063d-5374-4cc6-ac37-52cb733804c8"
                },
                "valueQuantity": {
                    "code": "ng/L",
                    "system": "http://unitsofmeasure.org",
                    "unit": "ng/L",
                    "value": 9
                },
                "resourceType": "Observation"
            }
        },
        {
            "request": {
                "method": "PUT",
                "url": "Observation/f9cd53b3-5d01-495b-95a2-da695a847b17"
            },
            "resource": {
                "id": "f9cd53b3-5d01-495b-95a2-da695a847b17",
                "meta": {
                    "profile": [
                        "https://www.medizininformatik-initiative.de/fhir/core/modul-labor/StructureDefinition/ObservationLab"
                    ]
                },
                "category": [
                    {
                        "coding": [
                            {
                                "code": "26436-6",
                                "system": "http://loinc.org"
                            },
                            {
                                "code": "laboratory",
                                "system": "http://terminology.hl7.org/CodeSystem/observation-category"
                            }
                        ]
                    }
                ],
                "code": {
                    "coding": [
                        {
                            "code": "718-7",
                            "display": "Hemoglobin [Mass/volume] in Blood",
                            "system": "http://loinc.org"
                        }
                    ],
                    "text": "Hemoglobin"
                },
                "effectiveDateTime": "2020-11-17T10:50:58+01:00",
                "identifier": [
                    {
                        "assigner": {
                            "reference": "Organization/Charit\u00e9"
                        },
                        "system": "https://www.charite.de/fhir/CodeSystem/lab-identifiers",
                        "type": {
                            "coding": [
                                {
                                    "code": "OBI",
                                    "system": "http://terminology.hl7.org/CodeSystem/v2-0203"
                                }
                            ]
                        },
                        "value": "718-7_hemoglobin-mass-per-volume-in-blood"
                    }
                ],
                "status": "final",
                "subject": {
                    "reference": "Patient/cee5063d-5374-4cc6-ac37-52cb733804c8"
                },
                "valueQuantity": {
                    "code": "g/dL",
                    "system": "http://unitsofmeasure.org",
                    "unit": "g/dL",
                    "value": 15.2
                },
                "resourceType": "Observation"
            }
        },
        {
            "request": {
                "method": "PUT",
                "url": "Observation/4ff61199-d59e-42f6-b59e-4a08da537e3a"
            },
            "resource": {
                "id": "4ff61199-d59e-42f6-b59e-4a08da537e3a",
                "meta": {
                    "profile": [
                        "https://www.medizininformatik-initiative.de/fhir/core/modul-labor/StructureDefinition/ObservationLab"
                    ]
                },
                "category": [
                    {
                        "coding": [
                            {
                                "code": "26436-6",
                                "system": "http://loinc.org"
                            },
                            {
                                "code": "laboratory",
                                "system": "http://terminology.hl7.org/CodeSystem/observation-category"
                            }
                        ]
                    }
                ],
                "code": {
                    "coding": [
                        {
                            "code": "2160-0",
                            "display": "Creatinine [Mass/volume] in Serum or Plasma",
                            "system": "http://loinc.org"
                        }
                    ],
                    "text": "Creatinine"
                },
                "effectiveDateTime": "2020-11-17T10:50:58+01:00",
                "identifier": [
                    {
                        "assigner": {
                            "reference": "Organization/Charit\u00e9"
                        },
                        "system": "https://www.charite.de/fhir/CodeSystem/lab-identifiers",
                        "type": {
                            "coding": [
                                {
                                    "code": "OBI",
                                    "system": "http://terminology.hl7.org/CodeSystem/v2-0203"
                                }
                            ]
                        },
                        "value": "2160-0_creatinine-mass-per-volume-in-serum-or-plasma"
                    }
                ],
                "status": "final",
                "subject": {
                    "reference": "Patient/cee5063d-5374-4cc6-ac37-52cb733804c8"
                },
                "valueQuantity": {
                    "code": "mg/dL",
                    "system": "http://unitsofmeasure.org",
                    "unit": "mg/dL",
                    "value": 0.58
                },
                "resourceType": "Observation"
            }
        },
        {
            "request": {
                "method": "PUT",
                "url": "Observation/e8b5c24a-48d4-4624-8729-755110f575c1"
            },
            "resource": {
                "id": "e8b5c24a-48d4-4624-8729-755110f575c1",
                "meta": {
                    "profile": [
                        "https://www.medizininformatik-initiative.de/fhir/core/modul-labor/StructureDefinition/ObservationLab"
                    ]
                },
                "category": [
                    {
                        "coding": [
                            {
                                "code": "26436-6",
                                "system": "http://loinc.org"
                            },
                            {
                                "code": "laboratory",
                                "system": "http://terminology.hl7.org/CodeSystem/observation-category"
                            }
                        ]
                    }
                ],
                "code": {
                    "coding": [
                        {
                            "code": "2519-7",
                            "display": "Lactate [Moles/volume] in Venous blood",
                            "system": "http://loinc.org"
                        }
                    ],
                    "text": "Lactate"
                },
                "effectiveDateTime": "2020-11-17T10:50:58+01:00",
                "identifier": [
                    {
                        "assigner": {
                            "reference": "Organization/Charit\u00e9"
                        },
                        "system": "https://www.charite.de/fhir/CodeSystem/lab-identifiers",
                        "type": {
                            "coding": [
                                {
                                    "code": "OBI",
                                    "system": "http://terminology.hl7.org/CodeSystem/v2-0203"
                                }
                            ]
                        },
                        "value": "2519-7_lactate-moles-per-volume-in-venous-blood"
                    }
                ],
                "status": "final",
                "subject": {
                    "reference": "Patient/cee5063d-5374-4cc6-ac37-52cb733804c8"
                },
                "valueQuantity": {
                    "code": "mmol/L",
                    "system": "http://unitsofmeasure.org",
                    "unit": "mmol/L",
                    "value": 4.2
                },
                "resourceType": "Observation"
            }
        },
        {
            "request": {
                "method": "PUT",
                "url": "Observation/d980d12f-e63d-4256-946d-01c7fa1da1ba"
            },
            "resource": {
                "id": "d980d12f-e63d-4256-946d-01c7fa1da1ba",
                "meta": {
                    "profile": [
                        "https://www.medizininformatik-initiative.de/fhir/core/modul-labor/StructureDefinition/ObservationLab"
                    ]
                },
                "category": [
                    {
                        "coding": [
                            {
                                "code": "26436-6",
                                "system": "http://loinc.org"
                            },
                            {
                                "code": "laboratory",
                                "system": "http://terminology.hl7.org/CodeSystem/observation-category"
                            }
                        ]
                    }
                ],
                "code": {
                    "coding": [
                        {
                            "code": "6690-2",
                            "display": "Leukocytes [#/volume] in Blood by Automated count",
                            "system": "http://loinc.org"
                        }
                    ],
                    "text": "Leukocytes"
                },
                "effectiveDateTime": "2020-11-17T10:50:58+01:00",
                "identifier": [
                    {
                        "assigner": {
                            "reference": "Organization/Charit\u00e9"
                        },
                        "system": "https://www.charite.de/fhir/CodeSystem/lab-identifiers",
                        "type": {
                            "coding": [
                                {
                                    "code": "OBI",
                                    "system": "http://terminology.hl7.org/CodeSystem/v2-0203"
                                }
                            ]
                        },
                        "value": "6690-2_leukocytes-number-per-volume-in-blood-by-automated-count"
                    }
                ],
                "status": "final",
                "subject": {
                    "reference": "Patient/cee5063d-5374-4cc6-ac37-52cb733804c8"
                },
                "valueQuantity": {
                    "code": "10*3/uL",
                    "system": "http://unitsofmeasure.org",
                    "unit": "10*3/uL",
                    "value": 9.8
                },
                "resourceType": "Observation"
            }
        },
        {
            "request": {
                "method": "PUT",
                "url": "Observation/1422ec01-b931-4f3d-88ac-3158a331667c"
            },
            "resource": {
                "id": "1422ec01-b931-4f3d-88ac-3158a331667c",
                "meta": {
                    "profile": [
                        "https://www.medizininformatik-initiative.de/fhir/core/modul-labor/StructureDefinition/ObservationLab"
                    ]
                },
                "category": [
                    {
                        "coding": [
                            {
                                "code": "26436-6",
                                "system": "http://loinc.org"
                            },
                            {
                                "code": "laboratory",
                                "system": "http://terminology.hl7.org/CodeSystem/observation-category"
                            }
                        ]
                    }
                ],
                "code": {
                    "coding": [
                        {
                            "code": "731-0",
                            "display": "Lymphocytes [#/volume] in Blood by Automated count",
                            "system": "http://loinc.org"
                        }
                    ],
                    "text": "Lymphocytes"
                },
                "effectiveDateTime": "2020-11-17T10:50:58+01:00",
                "identifier": [
                    {
                        "assigner": {
                            "reference": "Organization/Charit\u00e9"
                        },
                        "system": "https://www.charite.de/fhir/CodeSystem/lab-identifiers",
                        "type": {
                            "coding": [
                                {
                                    "code": "OBI",
                                    "system": "http://terminology.hl7.org/CodeSystem/v2-0203"
                                }
                            ]
                        },
                        "value": "731-0_lymphocytes-number-per-volume-in-blood-by-automated-count"
                    }
                ],
                "status": "final",
                "subject": {
                    "reference": "Patient/cee5063d-5374-4cc6-ac37-52cb733804c8"
                },
                "valueQuantity": {
                    "code": "10*3/uL",
                    "system": "http://unitsofmeasure.org",
                    "unit": "10*3/uL",
                    "value": 2.06
                },
                "resourceType": "Observation"
            }
        },
        {
            "request": {
                "method": "PUT",
                "url": "Observation/42b5a380-f436-4268-a5ce-dd46c2014542"
            },
            "resource": {
                "id": "42b5a380-f436-4268-a5ce-dd46c2014542",
                "meta": {
                    "profile": [
                        "https://www.medizininformatik-initiative.de/fhir/core/modul-labor/StructureDefinition/ObservationLab"
                    ]
                },
                "category": [
                    {
                        "coding": [
                            {
                                "code": "26436-6",
                                "system": "http://loinc.org"
                            },
                            {
                                "code": "laboratory",
                                "system": "http://terminology.hl7.org/CodeSystem/observation-category"
                            }
                        ]
                    }
                ],
                "code": {
                    "coding": [
                        {
                            "code": "751-8",
                            "display": "Neutrophils [#/volume] in Blood by Automated count",
                            "system": "http://loinc.org"
                        }
                    ],
                    "text": "Neutrophils"
                },
                "effectiveDateTime": "2020-11-17T10:50:58+01:00",
                "identifier": [
                    {
                        "assigner": {
                            "reference": "Organization/Charit\u00e9"
                        },
                        "system": "https://www.charite.de/fhir/CodeSystem/lab-identifiers",
                        "type": {
                            "coding": [
                                {
                                    "code": "OBI",
                                    "system": "http://terminology.hl7.org/CodeSystem/v2-0203"
                                }
                            ]
                        },
                        "value": "751-8_neutrophils-number-per-volume-in-blood-by-automated-count"
                    }
                ],
                "status": "final",
                "subject": {
                    "reference": "Patient/cee5063d-5374-4cc6-ac37-52cb733804c8"
                },
                "valueQuantity": {
                    "code": "10*3/uL",
                    "system": "http://unitsofmeasure.org",
                    "unit": "10*3/uL",
                    "value": 5.0
                },
                "resourceType": "Observation"
            }
        },
        {
            "request": {
                "method": "PUT",
                "url": "Observation/52c75714-47cc-4329-8be2-597fba4673f8"
            },
            "resource": {
                "id": "52c75714-47cc-4329-8be2-597fba4673f8",
                "meta": {
                    "profile": [
                        "https://www.netzwerk-universitaetsmedizin.de/fhir/StructureDefinition/sars-cov-2-rt-pcr"
                    ]
                },
                "category": [
                    {
                        "coding": [
                            {
                                "code": "26436-6",
                                "system": "http://loinc.org"
                            },
                            {
                                "code": "laboratory",
                                "system": "http://terminology.hl7.org/CodeSystem/observation-category"
                            }
                        ]
                    }
                ],
                "code": {
                    "coding": [
                        {
                            "code": "94500-6",
                            "display": "SARS-CoV-2 (COVID-19) RNA [Presence] in Respiratory specimen by NAA with probe detection",
                            "system": "http://loinc.org"
                        }
                    ],
                    "text": "SARS-CoV-2-RNA (PCR)"
                },
                "effectiveDateTime": "2020-11-17T10:50:58+01:00",
                "identifier": [
                    {
                        "assigner": {
                            "reference": "Organization/Charit\u00e9"
                        },
                        "system": "https://www.charite.de/fhir/CodeSystem/lab-identifiers",
                        "type": {
                            "coding": [
                                {
                                    "code": "OBI",
                                    "system": "http://terminology.hl7.org/CodeSystem/v2-0203"
                                }
                            ]
                        },
                        "value": "94500-6_SARS-CoV-2-RNA-Presence-in-Respiratory-specimen"
                    }
                ],
                "status": "final",
                "subject": {
                    "reference": "Patient/cee5063d-5374-4cc6-ac37-52cb733804c8"
                },
                "valueCodeableConcept": {
                    "coding": [
                        {
                            "code": "260373001",
                            "display": "Detected (qualifier value)",
                            "system": "http://snomed.info/sct"
                        }
                    ],
                    "text": "SARS-CoV-2-RNA positiv"
                },
                "resourceType": "Observation"
            }
        },
        {
            "request": {
                "method": "PUT",
                "url": "Observation/ab09c0a2-ce06-439e-aaf1-be09564315f4"
            },
            "resource": {
                "id": "ab09c0a2-ce06-439e-aaf1-be09564315f4",
                "meta": {
                    "profile": [
                        "https://www.netzwerk-universitaetsmedizin.de/fhir/StructureDefinition/sars-cov-2-ab-ser-pl-ql-ia"
                    ]
                },
                "category": [
                    {
                        "coding": [
                            {
                                "code": "26436-6",
                                "system": "http://loinc.org"
                            },
                            {
                                "code": "laboratory",
                                "system": "http://terminology.hl7.org/CodeSystem/observation-category"
                            }
                        ]
                    }
                ],
                "code": {
                    "coding": [
                        {
                            "code": "94762-2",
                            "display": "SARS-CoV-2 (COVID-19) Ab [Presence] in Serum or Plasma by Immunoassay",
                            "system": "http://loinc.org"
                        }
                    ],
                    "text": "SARS-CoV-2 antibodies qualitative"
                },
                "effectiveDateTime": "2020-11-17T10:50:58+01:00",
                "identifier": [
                    {
                        "assigner": {
                            "reference": "Organization/Charit\u00e9"
                        },
                        "system": "https://www.charite.de/fhir/CodeSystem/lab-identifiers",
                        "type": {
                            "coding": [
                                {
                                    "code": "OBI",
                                    "system": "http://terminology.hl7.org/CodeSystem/v2-0203"
                                }
                            ]
                        },
                        "value": "94762-2_SARS-CoV-2-Ab-Ql"
                    }
                ],
                "status": "final",
                "subject": {
                    "reference": "Patient/cee5063d-5374-4cc6-ac37-52cb733804c8"
                },
                "valueCodeableConcept": {
                    "coding": [
                        {
                            "code": "260415000",
                            "display": "Not detected (qualifier value)",
                            "system": "http://snomed.info/sct"
                        }
                    ]
                },
                "resourceType": "Observation"
            }
        },
        {
            "request": {
                "method": "PUT",
                "url": "Observation/cb758dca-2a40-42d7-a3b1-4dd3d3511f55"
            },
            "resource": {
                "id": "cb758dca-2a40-42d7-a3b1-4dd3d3511f55",
                "meta": {
                    "profile": [
                        "https://www.netzwerk-universitaetsmedizin.de/fhir/StructureDefinition/sars-cov-2-iga-ser-pl-ql-ia"
                    ]
                },
                "category": [
                    {
                        "coding": [
                            {
                                "code": "26436-6",
                                "system": "http://loinc.org"
                            },
                            {
                                "code": "laboratory",
                                "system": "http://terminology.hl7.org/CodeSystem/observation-category"
                            }
                        ]
                    }
                ],
                "code": {
                    "coding": [
                        {
                            "code": "94562-6",
                            "display": "SARS-CoV-2 (COVID-19) IgA Ab [Presence] in Serum or Plasma by Immunoassay",
                            "system": "http://loinc.org"
                        }
                    ],
                    "text": "SARS-CoV-2 IgA antibodies qualitative"
                },
                "effectiveDateTime": "2020-11-17T10:50:58+01:00",
                "identifier": [
                    {
                        "assigner": {
                            "reference": "Organization/Charit\u00e9"
                        },
                        "system": "https://www.charite.de/fhir/CodeSystem/lab-identifiers",
                        "type": {
                            "coding": [
                                {
                                    "code": "OBI",
                                    "system": "http://terminology.hl7.org/CodeSystem/v2-0203"
                                }
                            ]
                        },
                        "value": "94562-6_SARS-CoV-2-IgA-Ql"
                    }
                ],
                "status": "final",
                "subject": {
                    "reference": "Patient/cee5063d-5374-4cc6-ac37-52cb733804c8"
                },
                "valueCodeableConcept": {
                    "coding": [
                        {
                            "code": "419984006",
                            "display": "\tInconclusive (qualifier value)",
                            "system": "http://snomed.info/sct"
                        }
                    ]
                },
                "resourceType": "Observation"
            }
        },
        {
            "request": {
                "method": "PUT",
                "url": "Observation/8e533548-eb35-414d-953b-47a24c991e98"
            },
            "resource": {
                "id": "8e533548-eb35-414d-953b-47a24c991e98",
                "meta": {
                    "profile": [
                        "https://www.netzwerk-universitaetsmedizin.de/fhir/StructureDefinition/sars-cov-2-igg-ser-pl-ql-ia"
                    ]
                },
                "category": [
                    {
                        "coding": [
                            {
                                "code": "26436-6",
                                "system": "http://loinc.org"
                            },
                            {
                                "code": "laboratory",
                                "system": "http://terminology.hl7.org/CodeSystem/observation-category"
                            }
                        ]
                    }
                ],
                "code": {
                    "coding": [
                        {
                            "code": "94563-4",
                            "display": "SARS-CoV-2 (COVID-19) IgG Ab [Presence] in Serum or Plasma by Immunoassay",
                            "system": "http://loinc.org"
                        }
                    ],
                    "text": "SARS-CoV-2 IgG antibodies qualitative"
                },
                "effectiveDateTime": "2020-11-17T10:50:58+01:00",
                "identifier": [
                    {
                        "assigner": {
                            "reference": "Organization/Charit\u00e9"
                        },
                        "system": "https://www.charite.de/fhir/CodeSystem/lab-identifiers",
                        "type": {
                            "coding": [
                                {
                                    "code": "OBI",
                                    "system": "http://terminology.hl7.org/CodeSystem/v2-0203"
                                }
                            ]
                        },
                        "value": "94563-4_SARS-CoV-2-IgG-Ql"
                    }
                ],
                "status": "final",
                "subject": {
                    "reference": "Patient/cee5063d-5374-4cc6-ac37-52cb733804c8"
                },
                "valueCodeableConcept": {
                    "coding": [
                        {
                            "code": "260373001",
                            "display": "Detected (qualifier value)",
                            "system": "http://snomed.info/sct"
                        }
                    ]
                },
                "resourceType": "Observation"
            }
        },
        {
            "request": {
                "method": "PUT",
                "url": "Observation/deef94f9-b0d1-4a0a-9e8c-198c816902df"
            },
            "resource": {
                "id": "deef94f9-b0d1-4a0a-9e8c-198c816902df",
                "meta": {
                    "profile": [
                        "https://www.netzwerk-universitaetsmedizin.de/fhir/StructureDefinition/sars-cov-2-igm-ser-pl-ql-ia"
                    ]
                },
                "category": [
                    {
                        "coding": [
                            {
                                "code": "26436-6",
                                "system": "http://loinc.org"
                            },
                            {
                                "code": "laboratory",
                                "system": "http://terminology.hl7.org/CodeSystem/observation-category"
                            }
                        ]
                    }
                ],
                "code": {
                    "coding": [
                        {
                            "code": "94564-2",
                            "display": "SARS-CoV-2 (COVID-19) IgM Ab [Presence] in Serum or Plasma by Immunoassay",
                            "system": "http://loinc.org"
                        }
                    ],
                    "text": "SARS-CoV-2 IgM antibodies qualitative"
                },
                "effectiveDateTime": "2020-11-17T10:50:58+01:00",
                "identifier": [
                    {
                        "assigner": {
                            "reference": "Organization/Charit\u00e9"
                        },
                        "system": "https://www.charite.de/fhir/CodeSystem/lab-identifiers",
                        "type": {
                            "coding": [
                                {
                                    "code": "OBI",
                                    "system": "http://terminology.hl7.org/CodeSystem/v2-0203"
                                }
                            ]
                        },
                        "value": "94564-2_SARS-CoV-2-IgM-Ql"
                    }
                ],
                "status": "final",
                "subject": {
                    "reference": "Patient/cee5063d-5374-4cc6-ac37-52cb733804c8"
                },
                "valueCodeableConcept": {
                    "coding": [
                        {
                            "code": "419984006",
                            "display": "\tInconclusive (qualifier value)",
                            "system": "http://snomed.info/sct"
                        }
                    ]
                },
                "resourceType": "Observation"
            }
        },
        {
            "request": {
                "method": "PUT",
                "url": "Observation/471260a5-ac76-48bf-9dc6-401acfe35664"
            },
            "resource": {
                "id": "471260a5-ac76-48bf-9dc6-401acfe35664",
                "meta": {
                    "profile": [
                        "https://www.netzwerk-universitaetsmedizin.de/fhir/StructureDefinition/sars-cov-2-ab-pnl-ser-pl-ia"
                    ]
                },
                "category": [
                    {
                        "coding": [
                            {
                                "code": "26436-6",
                                "system": "http://loinc.org"
                            },
                            {
                                "code": "laboratory",
                                "system": "http://terminology.hl7.org/CodeSystem/observation-category"
                            }
                        ]
                    }
                ],
                "code": {
                    "coding": [
                        {
                            "code": "94504-8",
                            "display": "SARS-CoV-2 (COVID-19) Ab panel - Serum or Plasma by Immunoassay",
                            "system": "http://loinc.org"
                        }
                    ],
                    "text": "SARS-CoV-2 antibodies panel"
                },
                "effectiveDateTime": "2020-11-17T10:50:58+01:00",
                "hasMember": [
                    {
                        "reference": "Observation/ab09c0a2-ce06-439e-aaf1-be09564315f4"
                    },
                    {
                        "reference": "Observation/cb758dca-2a40-42d7-a3b1-4dd3d3511f55"
                    },
                    {
                        "reference": "Observation/8e533548-eb35-414d-953b-47a24c991e98"
                    },
                    {
                        "reference": "Observation/deef94f9-b0d1-4a0a-9e8c-198c816902df"
                    }
                ],
                "identifier": [
                    {
                        "assigner": {
                            "reference": "Organization/Charit\u00e9"
                        },
                        "system": "https://www.charite.de/fhir/CodeSystem/lab-identifiers",
                        "type": {
                            "coding": [
                                {
                                    "code": "OBI",
                                    "system": "http://terminology.hl7.org/CodeSystem/v2-0203"
                                }
                            ]
                        },
                        "value": "94504-8_SARS-CoV-2-Ab-Panel"
                    }
                ],
                "status": "final",
                "subject": {
                    "reference": "Patient/cee5063d-5374-4cc6-ac37-52cb733804c8"
                },
                "resourceType": "Observation"
            }
        },
        {
            "request": {
                "method": "POST",
                "url": "MedicationStatement"
            },
            "resource": {
                "id": "3bae18d1-78be-443f-a2db-8bac01859d54",
                "meta": {
                    "profile": [
                        "https://www.netzwerk-universitaetsmedizin.de/fhir/StructureDefinition/pharmacological-therapy"
                    ]
                },
                "effectiveDateTime": "2020-11-17T10:50:58+01:00",
                "medicationCodeableConcept": {
                    "coding": [
                        {
                            "code": "430817009",
                            "display": "Product containing interleukin 1 receptor antagonist (product)",
                            "system": "http://snomed.info/sct"
                        },
                        {
                            "code": "L04AC",
                            "display": "Interleukin-Inhibitoren",
                            "system": "http://fhir.de/CodeSystem/dimdi/atc"
                        }
                    ],
                    "text": "Il1-receptor antangonists"
                },
                "status": "active",
                "subject": {
                    "reference": "Patient/cee5063d-5374-4cc6-ac37-52cb733804c8"
                },
                "resourceType": "MedicationStatement"
            }
        },
        {
            "request": {
                "method": "POST",
                "url": "MedicationStatement"
            },
            "resource": {
                "id": "4c04fb74-1fa8-4fd7-b193-80d28e54da1c",
                "meta": {
                    "profile": [
                        "https://www.netzwerk-universitaetsmedizin.de/fhir/StructureDefinition/pharmacological-therapy-ace-inhibitors"
                    ]
                },
                "effectiveDateTime": "2020-11-17T10:50:58+01:00",
                "medicationCodeableConcept": {
                    "coding": [
                        {
                            "code": "41549009",
                            "display": "Product containing angiotensin-converting enzyme inhibitor (product)",
                            "system": "http://snomed.info/sct"
                        },
                        {
                            "code": "C09A",
                            "display": "ACE-HEMMER, REIN",
                            "system": "http://fhir.de/CodeSystem/dimdi/atc"
                        }
                    ],
                    "text": "ACE inhibitors"
                },
                "status": "active",
                "subject": {
                    "reference": "Patient/cee5063d-5374-4cc6-ac37-52cb733804c8"
                },
                "resourceType": "MedicationStatement"
            }
        },
        {
            "request": {
                "method": "POST",
                "url": "MedicationStatement"
            },
            "resource": {
                "id": "7fe5dd5b-3f31-4f24-acdb-c1f4c26d194c",
                "meta": {
                    "profile": [
                        "https://www.netzwerk-universitaetsmedizin.de/fhir/StructureDefinition/pharmacological-therapy-immunoglobulins"
                    ]
                },
                "effectiveDateTime": "2020-11-17T10:50:58+01:00",
                "medicationCodeableConcept": {
                    "coding": [
                        {
                            "code": "333710000",
                            "display": "Product containing immunoglobulin (product)",
                            "system": "http://snomed.info/sct"
                        },
                        {
                            "code": "J06B",
                            "display": "IMMUNGLOBULINE",
                            "system": "http://fhir.de/CodeSystem/dimdi/atc"
                        }
                    ],
                    "text": "immunoglobulins"
                },
                "status": "not-taken",
                "subject": {
                    "reference": "Patient/cee5063d-5374-4cc6-ac37-52cb733804c8"
                },
                "resourceType": "MedicationStatement"
            }
        },
        {
            "request": {
                "method": "POST",
                "url": "MedicationStatement"
            },
            "resource": {
                "id": "5ae478d1-d439-49f1-8bfe-3e90932eb47e",
                "meta": {
                    "profile": [
                        "https://www.netzwerk-universitaetsmedizin.de/fhir/StructureDefinition/pharmacological-therapy-anticoagulants"
                    ]
                },
                "effectiveDateTime": "2020-11-17T10:50:58+01:00",
                "medicationCodeableConcept": {
                    "coding": [
                        {
                            "code": "385576000",
                            "display": "Product containing coagulation factor Xa inhibitor (product)",
                            "system": "http://snomed.info/sct"
                        },
                        {
                            "code": "B01AF",
                            "display": "Direkte Faktor-Xa-Inhibitoren",
                            "system": "http://fhir.de/CodeSystem/dimdi/atc"
                        }
                    ],
                    "text": "Direct oral anticoagulants"
                },
                "reasonCode": [
                    {
                        "coding": [
                            {
                                "code": "360271000",
                                "display": "Prophylaxis - procedure intent (qualifier value)",
                                "system": "http://snomed.info/sct"
                            }
                        ]
                    }
                ],
                "status": "active",
                "subject": {
                    "reference": "Patient/cee5063d-5374-4cc6-ac37-52cb733804c8"
                },
                "resourceType": "MedicationStatement"
            }
        },
        {
            "request": {
                "method": "POST",
                "url": "Condition"
            },
            "resource": {
                "id": "b13cca88-f59f-4717-9f04-45f020de8e9a",
                "meta": {
                    "profile": [
                        "https://www.netzwerk-universitaetsmedizin.de/fhir/StructureDefinition/dependence-on-ventilator"
                    ]
                },
                "category": [
                    {
                        "coding": [
                            {
                                "code": "404989005",
                                "display": "Ventilation status (observable entity)",
                                "system": "http://snomed.info/sct"
                            }
                        ]
                    }
                ],
                "code": {
                    "coding": [
                        {
                            "code": "444932008",
                            "display": "Dependence on ventilator (finding)",
                            "system": "http://snomed.info/sct"
                        }
                    ]
                },
                "recordedDate": "2020-11-17T10:50:58+01:00",
                "subject": {
                    "reference": "Patient/cee5063d-5374-4cc6-ac37-52cb733804c8"
                },
                "verificationStatus": {
                    "coding": [
                        {
                            "code": "refuted",
                            "display": "Refuted",
                            "system": "http://terminology.hl7.org/CodeSystem/condition-ver-status"
                        },
                        {
                            "code": "410594000",
                            "display": "Definitely NOT present (qualifier value)",
                            "system": "http://snomed.info/sct"
                        }
                    ]
                },
                "resourceType": "Condition"
            }
        },
        {
            "request": {
                "method": "PUT",
                "url": "Observation/b03c3562-cd3b-4df3-a635-473a10deab7e"
            },
            "resource": {
                "id": "b03c3562-cd3b-4df3-a635-473a10deab7e",
                "meta": {
                    "profile": [
                        "https://www.netzwerk-universitaetsmedizin.de/fhir/StructureDefinition/discharge-disposition"
                    ]
                },
                "category": [
                    {
                        "coding": [
                            {
                                "code": "social-history",
                                "system": "http://terminology.hl7.org/CodeSystem/observation-category"
                            }
                        ]
                    }
                ],
                "code": {
                    "coding": [
                        {
                            "code": "55128-3",
                            "display": "Discharge disposition",
                            "system": "http://loinc.org"
                        }
                    ],
                    "text": "Type of discharge"
                },
                "effectiveDateTime": "2020-11-17T10:50:58+01:00",
                "identifier": [
                    {
                        "assigner": {
                            "reference": "Organization/Charit\u00e9"
                        },
                        "system": "https://www.charite.de/fhir/CodeSystem/observation-identifiers",
                        "type": {
                            "coding": [
                                {
                                    "code": "OBI",
                                    "system": "http://terminology.hl7.org/CodeSystem/v2-0203"
                                }
                            ]
                        },
                        "value": "55128-3_DischargeDisposition"
                    }
                ],
                "status": "final",
                "subject": {
                    "reference": "Patient/cee5063d-5374-4cc6-ac37-52cb733804c8"
                },
                "valueCodeableConcept": {
                    "coding": [
                        {
                            "code": "261665006",
                            "display": "Unknown (qualifier value)",
                            "system": "http://snomed.info/sct"
                        }
                    ]
                },
                "resourceType": "Observation"
            }
        },
        {
            "request": {
                "method": "PUT",
                "url": "Observation/455098c7-96f4-4855-a5a4-023b3b2d1a65"
            },
            "resource": {
                "id": "455098c7-96f4-4855-a5a4-023b3b2d1a65",
                "meta": {
                    "profile": [
                        "https://www.netzwerk-universitaetsmedizin.de/fhir/StructureDefinition/study-inclusion-covid-19"
                    ]
                },
                "category": [
                    {
                        "coding": [
                            {
                                "code": "survey",
                                "system": "http://terminology.hl7.org/CodeSystem/observation-category"
                            }
                        ]
                    }
                ],
                "code": {
                    "coding": [
                        {
                            "code": "02",
                            "display": "Study inclusion due to Covid-19",
                            "system": "https://www.netzwerk-universitaetsmedizin.de/fhir/CodeSystem/ecrf-parameter-codes"
                        }
                    ],
                    "text": "Confirmed Covid-19 diagnosis as main reason for enrolment in the study"
                },
                "effectiveDateTime": "2020-11-17T10:50:58+01:00",
                "identifier": [
                    {
                        "assigner": {
                            "reference": "Organization/Charit\u00e9"
                        },
                        "system": "https://www.charite.de/fhir/CodeSystem/observation-identifiers",
                        "type": {
                            "coding": [
                                {
                                    "code": "OBI",
                                    "system": "http://terminology.hl7.org/CodeSystem/v2-0203"
                                }
                            ]
                        },
                        "value": "ecrf_02_StudyInclusionCovid19"
                    }
                ],
                "status": "final",
                "subject": {
                    "reference": "Patient/cee5063d-5374-4cc6-ac37-52cb733804c8"
                },
                "valueCodeableConcept": {
                    "coding": [
                        {
                            "code": "373066001",
                            "display": "Yes (qualifier value)",
                            "system": "http://snomed.info/sct"
                        }
                    ],
                    "text": "Covid-19 as primary reason for study inclusion"
                },
                "resourceType": "Observation"
            }
        },
        {
            "request": {
                "method": "PUT",
                "url": "Observation/b43042dc-a448-42af-b023-d2a9d59225c7"
            },
            "resource": {
                "id": "b43042dc-a448-42af-b023-d2a9d59225c7",
                "meta": {
                    "profile": [
                        "https://www.netzwerk-universitaetsmedizin.de/fhir/StructureDefinition/interventional-clinical-trial-participation"
                    ]
                },
                "category": [
                    {
                        "coding": [
                            {
                                "code": "survey",
                                "system": "http://terminology.hl7.org/CodeSystem/observation-category"
                            }
                        ]
                    }
                ],
                "code": {
                    "coding": [
                        {
                            "code": "03",
                            "display": "Participation in interventional clinical trials",
                            "system": "https://www.netzwerk-universitaetsmedizin.de/fhir/CodeSystem/ecrf-parameter-codes"
                        }
                    ],
                    "text": "Has the patient participated in one or more interventional clinical trials?"
                },
                "effectiveDateTime": "2020-11-17T10:50:58+01:00",
                "identifier": [
                    {
                        "assigner": {
                            "reference": "Organization/Charit\u00e9"
                        },
                        "system": "https://www.charite.de/fhir/CodeSystem/observation-identifiers",
                        "type": {
                            "coding": [
                                {
                                    "code": "OBI",
                                    "system": "http://terminology.hl7.org/CodeSystem/v2-0203"
                                }
                            ]
                        },
                        "value": "ecrf_03_InterventionalClinicalTrialsParticipation"
                    }
                ],
                "status": "final",
                "subject": {
                    "reference": "Patient/cee5063d-5374-4cc6-ac37-52cb733804c8"
                },
                "valueCodeableConcept": {
                    "coding": [
                        {
                            "code": "373067005",
                            "display": "No (qualifier value)",
                            "system": "http://snomed.info/sct"
                        }
                    ],
                    "text": "Patient is not enrolled in other studies"
                },
                "resourceType": "Observation"
            }
        },
        {
            "request": {
                "method": "POST",
                "url": "Condition"
            },
            "resource": {
                "id": "abbe8336-f8ab-4dcb-ad8a-fa1b0f72919f",
                "meta": {
                    "profile": [
                        "https://www.netzwerk-universitaetsmedizin.de/fhir/StructureDefinition/symptoms-covid-19"
                    ]
                },
                "extension": [
                    {
                        "url": "https://www.netzwerk-universitaetsmedizin.de/fhir/StructureDefinition/uncertainty-of-presence",
                        "valueCodeableConcept": {
                            "coding": [
                                {
                                    "code": "261665006",
                                    "display": "Unknown (qualifier value)",
                                    "system": "http://snomed.info/sct"
                                }
                            ],
                            "text": "Presence of symptom is unknown."
                        }
                    }
                ],
                "category": [
                    {
                        "coding": [
                            {
                                "code": "75325-1",
                                "display": "Symptom",
                                "system": "http://loinc.org"
                            }
                        ]
                    }
                ],
                "code": {
                    "coding": [
                        {
                            "code": "36955009",
                            "display": "Loss of taste (finding)",
                            "system": "http://snomed.info/sct"
                        }
                    ]
                },
                "recordedDate": "2020-11-17T10:50:58+01:00",
                "subject": {
                    "reference": "Patient/cee5063d-5374-4cc6-ac37-52cb733804c8"
                },
                "resourceType": "Condition"
            }
        },
        {
            "request": {
                "method": "POST",
                "url": "Condition"
            },
            "resource": {
                "id": "5dac0cc3-efe7-42e2-a83a-b2a193a74967",
                "meta": {
                    "profile": [
                        "https://www.netzwerk-universitaetsmedizin.de/fhir/StructureDefinition/symptoms-covid-19"
                    ]
                },
                "category": [
                    {
                        "coding": [
                            {
                                "code": "75325-1",
                                "display": "Symptom",
                                "system": "http://loinc.org"
                            }
                        ]
                    }
                ],
                "code": {
                    "coding": [
                        {
                            "code": "21522001",
                            "display": "Abdominal pain (finding)",
                            "system": "http://snomed.info/sct"
                        }
                    ]
                },
                "recordedDate": "2020-11-17T10:50:58+01:00",
                "subject": {
                    "reference": "Patient/cee5063d-5374-4cc6-ac37-52cb733804c8"
                },
                "verificationStatus": {
                    "coding": [
                        {
                            "code": "refuted",
                            "display": "Refuted",
                            "system": "http://terminology.hl7.org/CodeSystem/condition-ver-status"
                        },
                        {
                            "code": "410594000",
                            "display": "Definitely NOT present (qualifier value)",
                            "system": "http://snomed.info/sct"
                        }
                    ]
                },
                "resourceType": "Condition"
            }
        },
        {
            "request": {
                "method": "POST",
                "url": "Condition"
            },
            "resource": {
                "id": "52506870-4034-4602-b82c-0720ba7c2309",
                "meta": {
                    "profile": [
                        "https://www.netzwerk-universitaetsmedizin.de/fhir/StructureDefinition/symptoms-covid-19"
                    ]
                },
                "category": [
                    {
                        "coding": [
                            {
                                "code": "75325-1",
                                "display": "Symptom",
                                "system": "http://loinc.org"
                            }
                        ]
                    }
                ],
                "clinicalStatus": {
                    "coding": [
                        {
                            "code": "active",
                            "display": "Active",
                            "system": "http://terminology.hl7.org/CodeSystem/condition-clinical"
                        }
                    ]
                },
                "code": {
                    "coding": [
                        {
                            "code": "40917007",
                            "display": "Clouded consciousness (finding)",
                            "system": "http://snomed.info/sct"
                        }
                    ]
                },
                "recordedDate": "2020-11-17T10:50:58+01:00",
                "subject": {
                    "reference": "Patient/cee5063d-5374-4cc6-ac37-52cb733804c8"
                },
                "verificationStatus": {
                    "coding": [
                        {
                            "code": "confirmed",
                            "display": "Confirmed",
                            "system": "http://terminology.hl7.org/CodeSystem/condition-ver-status"
                        },
                        {
                            "code": "410605003",
                            "display": "Confirmed present (qualifier value)",
                            "system": "http://snomed.info/sct"
                        }
                    ]
                },
                "resourceType": "Condition"
            }
        },
        {
            "request": {
                "method": "POST",
                "url": "Condition"
            },
            "resource": {
                "id": "799db985-255a-41e0-9cbe-b614bc4672ca",
                "meta": {
                    "profile": [
                        "https://www.netzwerk-universitaetsmedizin.de/fhir/StructureDefinition/symptoms-covid-19"
                    ]
                },
                "extension": [
                    {
                        "url": "https://www.netzwerk-universitaetsmedizin.de/fhir/StructureDefinition/uncertainty-of-presence",
                        "valueCodeableConcept": {
                            "coding": [
                                {
                                    "code": "261665006",
                                    "display": "Unknown (qualifier value)",
                                    "system": "http://snomed.info/sct"
                                }
                            ],
                            "text": "Presence of symptom is unknown."
                        }
                    }
                ],
                "category": [
                    {
                        "coding": [
                            {
                                "code": "75325-1",
                                "display": "Symptom",
                                "system": "http://loinc.org"
                            }
                        ]
                    }
                ],
                "code": {
                    "coding": [
                        {
                            "code": "62315008",
                            "display": "Diarrhea (finding)",
                            "system": "http://snomed.info/sct"
                        }
                    ]
                },
                "recordedDate": "2020-11-17T10:50:58+01:00",
                "subject": {
                    "reference": "Patient/cee5063d-5374-4cc6-ac37-52cb733804c8"
                },
                "resourceType": "Condition"
            }
        },
        {
            "request": {
                "method": "POST",
                "url": "Condition"
            },
            "resource": {
                "id": "abc37ddd-9bd0-48ae-ac47-079f736c8a32",
                "meta": {
                    "profile": [
                        "https://www.netzwerk-universitaetsmedizin.de/fhir/StructureDefinition/symptoms-covid-19"
                    ]
                },
                "category": [
                    {
                        "coding": [
                            {
                                "code": "75325-1",
                                "display": "Symptom",
                                "system": "http://loinc.org"
                            }
                        ]
                    }
                ],
                "code": {
                    "coding": [
                        {
                            "code": "422400008",
                            "display": "Vomiting (disorder)",
                            "system": "http://snomed.info/sct"
                        }
                    ]
                },
                "recordedDate": "2020-11-17T10:50:58+01:00",
                "subject": {
                    "reference": "Patient/cee5063d-5374-4cc6-ac37-52cb733804c8"
                },
                "verificationStatus": {
                    "coding": [
                        {
                            "code": "refuted",
                            "display": "Refuted",
                            "system": "http://terminology.hl7.org/CodeSystem/condition-ver-status"
                        },
                        {
                            "code": "410594000",
                            "display": "Definitely NOT present (qualifier value)",
                            "system": "http://snomed.info/sct"
                        }
                    ]
                },
                "resourceType": "Condition"
            }
        },
        {
            "request": {
                "method": "POST",
                "url": "Condition"
            },
            "resource": {
                "id": "341da228-85fa-4a20-af6e-29dd147044da",
                "meta": {
                    "profile": [
                        "https://www.netzwerk-universitaetsmedizin.de/fhir/StructureDefinition/symptoms-covid-19"
                    ]
                },
                "category": [
                    {
                        "coding": [
                            {
                                "code": "75325-1",
                                "display": "Symptom",
                                "system": "http://loinc.org"
                            }
                        ]
                    }
                ],
                "clinicalStatus": {
                    "coding": [
                        {
                            "code": "active",
                            "display": "Active",
                            "system": "http://terminology.hl7.org/CodeSystem/condition-clinical"
                        }
                    ]
                },
                "code": {
                    "coding": [
                        {
                            "code": "49727002",
                            "display": "Cough (finding)",
                            "system": "http://snomed.info/sct"
                        }
                    ]
                },
                "recordedDate": "2020-11-17T10:50:58+01:00",
                "severity": {
                    "coding": [
                        {
                            "code": "255604002",
                            "display": "Mild (qualifier value)",
                            "system": "http://snomed.info/sct"
                        }
                    ]
                },
                "subject": {
                    "reference": "Patient/cee5063d-5374-4cc6-ac37-52cb733804c8"
                },
                "verificationStatus": {
                    "coding": [
                        {
                            "code": "confirmed",
                            "display": "Confirmed",
                            "system": "http://terminology.hl7.org/CodeSystem/condition-ver-status"
                        },
                        {
                            "code": "410605003",
                            "display": "Confirmed present (qualifier value)",
                            "system": "http://snomed.info/sct"
                        }
                    ]
                },
                "resourceType": "Condition"
            }
        },
        {
            "request": {
                "method": "POST",
                "url": "Condition"
            },
            "resource": {
                "id": "f0132c73-4fa7-4814-9bfd-d404336cee98",
                "meta": {
                    "profile": [
                        "https://www.netzwerk-universitaetsmedizin.de/fhir/StructureDefinition/symptoms-covid-19"
                    ]
                },
                "category": [
                    {
                        "coding": [
                            {
                                "code": "75325-1",
                                "display": "Symptom",
                                "system": "http://loinc.org"
                            }
                        ]
                    }
                ],
                "clinicalStatus": {
                    "coding": [
                        {
                            "code": "active",
                            "display": "Active",
                            "system": "http://terminology.hl7.org/CodeSystem/condition-clinical"
                        }
                    ]
                },
                "code": {
                    "coding": [
                        {
                            "code": "267036007",
                            "display": "Dyspnea (finding)",
                            "system": "http://snomed.info/sct"
                        }
                    ]
                },
                "recordedDate": "2020-11-17T10:50:58+01:00",
                "severity": {
                    "coding": [
                        {
                            "code": "6736007",
                            "display": "Moderate (severity modifier) (qualifier value)",
                            "system": "http://snomed.info/sct"
                        }
                    ]
                },
                "subject": {
                    "reference": "Patient/cee5063d-5374-4cc6-ac37-52cb733804c8"
                },
                "verificationStatus": {
                    "coding": [
                        {
                            "code": "confirmed",
                            "display": "Confirmed",
                            "system": "http://terminology.hl7.org/CodeSystem/condition-ver-status"
                        },
                        {
                            "code": "410605003",
                            "display": "Confirmed present (qualifier value)",
                            "system": "http://snomed.info/sct"
                        }
                    ]
                },
                "resourceType": "Condition"
            }
        },
        {
            "request": {
                "method": "POST",
                "url": "Condition"
            },
            "resource": {
                "id": "c3fd10b2-0add-4ec0-a72c-c791d255e0d2",
                "meta": {
                    "profile": [
                        "https://www.netzwerk-universitaetsmedizin.de/fhir/StructureDefinition/symptoms-covid-19"
                    ]
                },
                "category": [
                    {
                        "coding": [
                            {
                                "code": "75325-1",
                                "display": "Symptom",
                                "system": "http://loinc.org"
                            }
                        ]
                    }
                ],
                "clinicalStatus": {
                    "coding": [
                        {
                            "code": "active",
                            "display": "Active",
                            "system": "http://terminology.hl7.org/CodeSystem/condition-clinical"
                        }
                    ]
                },
                "code": {
                    "coding": [
                        {
                            "code": "422587007",
                            "display": "Nausea (finding)",
                            "system": "http://snomed.info/sct"
                        }
                    ]
                },
                "recordedDate": "2020-11-17T10:50:58+01:00",
                "subject": {
                    "reference": "Patient/cee5063d-5374-4cc6-ac37-52cb733804c8"
                },
                "verificationStatus": {
                    "coding": [
                        {
                            "code": "confirmed",
                            "display": "Confirmed",
                            "system": "http://terminology.hl7.org/CodeSystem/condition-ver-status"
                        },
                        {
                            "code": "410605003",
                            "display": "Confirmed present (qualifier value)",
                            "system": "http://snomed.info/sct"
                        }
                    ]
                },
                "resourceType": "Condition"
            }
        },
        {
            "request": {
                "method": "POST",
                "url": "Condition"
            },
            "resource": {
                "id": "e361d125-0dc4-4635-9038-2c8fd1b5294d",
                "meta": {
                    "profile": [
                        "https://www.netzwerk-universitaetsmedizin.de/fhir/StructureDefinition/symptoms-covid-19"
                    ]
                },
                "category": [
                    {
                        "coding": [
                            {
                                "code": "75325-1",
                                "display": "Symptom",
                                "system": "http://loinc.org"
                            }
                        ]
                    }
                ],
                "clinicalStatus": {
                    "coding": [
                        {
                            "code": "active",
                            "display": "Active",
                            "system": "http://terminology.hl7.org/CodeSystem/condition-clinical"
                        }
                    ]
                },
                "code": {
                    "coding": [
                        {
                            "code": "426000000",
                            "display": "Fever greater than 100.4 Fahrenheit / 38\u00b0 Celsius (finding)",
                            "system": "http://snomed.info/sct"
                        }
                    ]
                },
                "recordedDate": "2020-11-17T10:50:58+01:00",
                "severity": {
                    "coding": [
                        {
                            "code": "442452003",
                            "display": "Life threatening severity (qualifier value)",
                            "system": "http://snomed.info/sct"
                        }
                    ]
                },
                "subject": {
                    "reference": "Patient/cee5063d-5374-4cc6-ac37-52cb733804c8"
                },
                "verificationStatus": {
                    "coding": [
                        {
                            "code": "confirmed",
                            "display": "Confirmed",
                            "system": "http://terminology.hl7.org/CodeSystem/condition-ver-status"
                        },
                        {
                            "code": "410605003",
                            "display": "Confirmed present (qualifier value)",
                            "system": "http://snomed.info/sct"
                        }
                    ]
                },
                "resourceType": "Condition"
            }
        },
        {
            "request": {
                "method": "POST",
                "url": "Condition"
            },
            "resource": {
                "id": "570a330c-0468-41d7-aedf-97d6e3a1839d",
                "meta": {
                    "profile": [
                        "https://www.netzwerk-universitaetsmedizin.de/fhir/StructureDefinition/symptoms-covid-19"
                    ]
                },
                "category": [
                    {
                        "coding": [
                            {
                                "code": "75325-1",
                                "display": "Symptom",
                                "system": "http://loinc.org"
                            }
                        ]
                    }
                ],
                "code": {
                    "coding": [
                        {
                            "code": "25064002",
                            "display": "Headache (finding)",
                            "system": "http://snomed.info/sct"
                        }
                    ]
                },
                "recordedDate": "2020-11-17T10:50:58+01:00",
                "subject": {
                    "reference": "Patient/cee5063d-5374-4cc6-ac37-52cb733804c8"
                },
                "verificationStatus": {
                    "coding": [
                        {
                            "code": "refuted",
                            "display": "Refuted",
                            "system": "http://terminology.hl7.org/CodeSystem/condition-ver-status"
                        },
                        {
                            "code": "410594000",
                            "display": "Definitely NOT present (qualifier value)",
                            "system": "http://snomed.info/sct"
                        }
                    ]
                },
                "resourceType": "Condition"
            }
        },
        {
            "request": {
                "method": "POST",
                "url": "Procedure"
            },
            "resource": {
                "id": "ffe5861e-2390-4f1f-9473-5ce4e46879e3",
                "meta": {
                    "profile": [
                        "https://www.netzwerk-universitaetsmedizin.de/fhir/StructureDefinition/dialysis"
                    ]
                },
                "category": {
                    "coding": [
                        {
                            "code": "277132007",
                            "display": "Therapeutic procedure (procedure)",
                            "system": "http://snomed.info/sct"
                        }
                    ]
                },
                "code": {
                    "coding": [
                        {
                            "code": "108241001",
                            "display": "Dialysis procedure (procedure)",
                            "system": "http://snomed.info/sct"
                        }
                    ],
                    "text": "Dialysis"
                },
                "performedDateTime": "2020-11-17T10:50:58+01:00",
                "status": "in-progress",
                "subject": {
                    "reference": "Patient/cee5063d-5374-4cc6-ac37-52cb733804c8"
                },
                "resourceType": "Procedure"
            }
        },
        {
            "request": {
                "method": "POST",
                "url": "Procedure"
            },
            "resource": {
                "id": "5fe49c8b-fcb7-41ce-a486-60e2085279a6",
                "meta": {
                    "profile": [
                        "https://www.netzwerk-universitaetsmedizin.de/fhir/StructureDefinition/apheresis"
                    ]
                },
                "category": {
                    "coding": [
                        {
                            "code": "277132007",
                            "display": "Therapeutic procedure (procedure)",
                            "system": "http://snomed.info/sct"
                        }
                    ]
                },
                "code": {
                    "coding": [
                        {
                            "code": "127788007",
                            "display": "Apheresis (procedure)",
                            "system": "http://snomed.info/sct"
                        }
                    ],
                    "text": "Apheresis"
                },
                "performedDateTime": "2020-11-17T10:50:58+01:00",
                "status": "in-progress",
                "subject": {
                    "reference": "Patient/cee5063d-5374-4cc6-ac37-52cb733804c8"
                },
                "resourceType": "Procedure"
            }
        },
        {
            "request": {
                "method": "POST",
                "url": "Procedure"
            },
            "resource": {
                "id": "5d524177-94bb-452e-bc71-688f0f922f12",
                "meta": {
                    "profile": [
                        "https://www.netzwerk-universitaetsmedizin.de/fhir/StructureDefinition/prone-position"
                    ]
                },
                "category": {
                    "coding": [
                        {
                            "code": "225287004",
                            "display": "Procedures relating to positioning and support (procedure)",
                            "system": "http://snomed.info/sct"
                        }
                    ]
                },
                "code": {
                    "coding": [
                        {
                            "code": "431182000",
                            "display": "Placing subject in prone position (procedure)",
                            "system": "http://snomed.info/sct"
                        }
                    ],
                    "text": "Prone position"
                },
                "performedDateTime": "2020-11-17T10:50:58+01:00",
                "status": "in-progress",
                "subject": {
                    "reference": "Patient/cee5063d-5374-4cc6-ac37-52cb733804c8"
                },
                "resourceType": "Procedure"
            }
        },
        {
            "request": {
                "method": "POST",
                "url": "Procedure"
            },
            "resource": {
                "id": "c35de613-2eab-4bc0-a927-968fa6cf713f",
                "meta": {
                    "profile": [
                        "https://www.netzwerk-universitaetsmedizin.de/fhir/StructureDefinition/extracorporeal-membrane-oxygenation"
                    ]
                },
                "category": {
                    "coding": [
                        {
                            "code": "277132007",
                            "display": "Therapeutic procedure (procedure)",
                            "system": "http://snomed.info/sct"
                        }
                    ]
                },
                "code": {
                    "coding": [
                        {
                            "code": "233573008",
                            "display": "Extracorporeal membrane oxygenation (procedure)",
                            "system": "http://snomed.info/sct"
                        }
                    ],
                    "text": "ECMO"
                },
                "performedDateTime": "2020-11-17T10:50:58+01:00",
                "status": "in-progress",
                "subject": {
                    "reference": "Patient/cee5063d-5374-4cc6-ac37-52cb733804c8"
                },
                "resourceType": "Procedure"
            }
        },
        {
            "request": {
                "method": "PUT",
                "url": "Observation/22a4d02b-a30f-4b6a-b308-9cfc4695e1a6"
            },
            "resource": {
                "id": "22a4d02b-a30f-4b6a-b308-9cfc4695e1a6",
                "meta": {
                    "profile": [
                        "https://www.netzwerk-universitaetsmedizin.de/fhir/StructureDefinition/patient-in-icu"
                    ]
                },
                "category": [
                    {
                        "coding": [
                            {
                                "code": "survey",
                                "display": "Survey",
                                "system": "http://terminology.hl7.org/CodeSystem/observation-category"
                            }
                        ]
                    }
                ],
                "code": {
                    "coding": [
                        {
                            "code": "01",
                            "display": "Is the patient in the intensive care unit?",
                            "system": "https://www.netzwerk-universitaetsmedizin.de/fhir/CodeSystem/ecrf-parameter-codes"
                        }
                    ]
                },
                "effectiveDateTime": "2020-11-17T10:50:58+01:00",
                "status": "final",
                "subject": {
                    "reference": "Patient/cee5063d-5374-4cc6-ac37-52cb733804c8"
                },
                "valueCodeableConcept": {
                    "coding": [
                        {
                            "code": "261665006",
                            "display": "Unknown (qualifier value)",
                            "system": "http://snomed.info/sct"
                        }
                    ]
                },
                "resourceType": "Observation"
            }
        },
        {
            "request": {
                "method": "POST",
                "url": "Procedure"
            },
            "resource": {
                "id": "a2847de4-0a1a-4f21-b0da-6d9880aa47eb",
                "meta": {
                    "profile": [
                        "https://www.netzwerk-universitaetsmedizin.de/fhir/StructureDefinition/respiratory-therapies"
                    ]
                },
                "category": {
                    "coding": [
                        {
                            "code": "277132007",
                            "display": "Therapeutic procedure (procedure)",
                            "system": "http://snomed.info/sct"
                        }
                    ]
                },
                "code": {
                    "coding": [
                        {
                            "code": "40617009",
                            "display": "Artificial respiration (procedure)",
                            "system": "http://snomed.info/sct"
                        }
                    ],
                    "text": "Invasive ventilation (orotracheal)"
                },
                "performedDateTime": "2020-11-17T10:50:58+01:00",
                "status": "in-progress",
                "subject": {
                    "reference": "Patient/cee5063d-5374-4cc6-ac37-52cb733804c8"
                },
                "usedCode": [
                    {
                        "coding": [
                            {
                                "code": "26412008",
                                "display": "Endotracheal tube, device (physical object)",
                                "system": "http://snomed.info/sct"
                            }
                        ]
                    }
                ],
                "resourceType": "Procedure"
            }
        },
        {
            "request": {
                "method": "PUT",
                "url": "Observation/5ae4fbf3-ad4b-42bc-b643-ce496462176f"
            },
            "resource": {
                "id": "5ae4fbf3-ad4b-42bc-b643-ce496462176f",
                "meta": {
                    "profile": [
                        "https://www.netzwerk-universitaetsmedizin.de/fhir/StructureDefinition/carbon-dioxide-partial-pressure"
                    ]
                },
                "category": [
                    {
                        "coding": [
                            {
                                "code": "26436-6",
                                "system": "http://loinc.org"
                            },
                            {
                                "code": "laboratory",
                                "system": "http://terminology.hl7.org/CodeSystem/observation-category"
                            },
                            {
                                "code": "18767-4",
                                "system": "http://loinc.org"
                            }
                        ]
                    }
                ],
                "code": {
                    "coding": [
                        {
                            "code": "2019-8",
                            "display": "Carbon dioxide [Partial pressure] in Arterial blood",
                            "system": "http://loinc.org"
                        }
                    ],
                    "text": "paCO2"
                },
                "effectiveDateTime": "2020-11-17T10:50:58+01:00",
                "identifier": [
                    {
                        "assigner": {
                            "reference": "Organization/Charit\u00e9"
                        },
                        "system": "https://www.charite.de/fhir/CodeSystem/lab-identifiers",
                        "type": {
                            "coding": [
                                {
                                    "code": "OBI",
                                    "system": "http://terminology.hl7.org/CodeSystem/v2-0203"
                                }
                            ]
                        },
                        "value": "2019-8_paCO2"
                    }
                ],
                "status": "final",
                "subject": {
                    "reference": "Patient/cee5063d-5374-4cc6-ac37-52cb733804c8"
                },
                "valueQuantity": {
                    "code": "mm[Hg]",
                    "system": "http://unitsofmeasure.org",
                    "unit": "mmHg",
                    "value": 43
                },
                "resourceType": "Observation"
            }
        },
        {
            "request": {
                "method": "PUT",
                "url": "Observation/5b6528c4-437e-4e10-9281-a5c60814e7e0"
            },
            "resource": {
                "id": "5b6528c4-437e-4e10-9281-a5c60814e7e0",
                "meta": {
                    "profile": [
                        "https://www.netzwerk-universitaetsmedizin.de/fhir/StructureDefinition/oxygen-partial-pressure"
                    ]
                },
                "category": [
                    {
                        "coding": [
                            {
                                "code": "26436-6",
                                "system": "http://loinc.org"
                            },
                            {
                                "code": "laboratory",
                                "system": "http://terminology.hl7.org/CodeSystem/observation-category"
                            },
                            {
                                "code": "18767-4",
                                "system": "http://loinc.org"
                            }
                        ]
                    }
                ],
                "code": {
                    "coding": [
                        {
                            "code": "2703-7",
                            "display": "Oxygen [Partial pressure] in Arterial blood",
                            "system": "http://loinc.org"
                        }
                    ],
                    "text": "paO2"
                },
                "effectiveDateTime": "2020-11-17T10:50:58+01:00",
                "identifier": [
                    {
                        "assigner": {
                            "reference": "Organization/Charit\u00e9"
                        },
                        "system": "https://www.charite.de/fhir/CodeSystem/lab-identifiers",
                        "type": {
                            "coding": [
                                {
                                    "code": "OBI",
                                    "system": "http://terminology.hl7.org/CodeSystem/v2-0203"
                                }
                            ]
                        },
                        "value": "2703-7_paO2"
                    }
                ],
                "status": "final",
                "subject": {
                    "reference": "Patient/cee5063d-5374-4cc6-ac37-52cb733804c8"
                },
                "valueQuantity": {
                    "code": "mm[Hg]",
                    "system": "http://unitsofmeasure.org",
                    "unit": "mmHg",
                    "value": 92
                },
                "resourceType": "Observation"
            }
        },
        {
            "request": {
                "method": "PUT",
                "url": "Observation/c671ac8a-f867-4b76-9c51-3a846f1c21d8"
            },
            "resource": {
                "id": "c671ac8a-f867-4b76-9c51-3a846f1c21d8",
                "meta": {
                    "profile": [
                        "https://www.netzwerk-universitaetsmedizin.de/fhir/StructureDefinition/inhaled-oxygen-concentration"
                    ]
                },
                "category": [
                    {
                        "coding": [
                            {
                                "code": "26436-6",
                                "system": "http://loinc.org"
                            },
                            {
                                "code": "laboratory",
                                "system": "http://terminology.hl7.org/CodeSystem/observation-category"
                            },
                            {
                                "code": "18767-4",
                                "system": "http://loinc.org"
                            }
                        ]
                    }
                ],
                "code": {
                    "coding": [
                        {
                            "code": "3150-0",
                            "display": "Inhaled oxygen concentration",
                            "system": "http://loinc.org"
                        }
                    ],
                    "text": "FiO2"
                },
                "effectiveDateTime": "2020-11-17T10:50:58+01:00",
                "identifier": [
                    {
                        "assigner": {
                            "reference": "Organization/Charit\u00e9"
                        },
                        "system": "https://www.charite.de/fhir/CodeSystem/lab-identifiers",
                        "type": {
                            "coding": [
                                {
                                    "code": "OBI",
                                    "system": "http://terminology.hl7.org/CodeSystem/v2-0203"
                                }
                            ]
                        },
                        "value": "3150-0_FiO2"
                    }
                ],
                "status": "final",
                "subject": {
                    "reference": "Patient/cee5063d-5374-4cc6-ac37-52cb733804c8"
                },
                "valueQuantity": {
                    "code": "%",
                    "system": "http://unitsofmeasure.org",
                    "unit": "%",
                    "value": 25
                },
                "resourceType": "Observation"
            }
        },
        {
            "request": {
                "method": "PUT",
                "url": "Observation/5f3f6a17-3ee7-4046-a4f3-a7953acd2755"
            },
            "resource": {
                "id": "5f3f6a17-3ee7-4046-a4f3-a7953acd2755",
                "meta": {
                    "profile": [
                        "https://www.netzwerk-universitaetsmedizin.de/fhir/StructureDefinition/pH"
                    ]
                },
                "category": [
                    {
                        "coding": [
                            {
                                "code": "26436-6",
                                "system": "http://loinc.org"
                            },
                            {
                                "code": "laboratory",
                                "system": "http://terminology.hl7.org/CodeSystem/observation-category"
                            },
                            {
                                "code": "18767-4",
                                "system": "http://loinc.org"
                            }
                        ]
                    }
                ],
                "code": {
                    "coding": [
                        {
                            "code": "2744-1",
                            "display": "pH of Arterial blood",
                            "system": "http://loinc.org"
                        }
                    ],
                    "text": "pH"
                },
                "effectiveDateTime": "2020-11-17T10:50:58+01:00",
                "identifier": [
                    {
                        "assigner": {
                            "reference": "Organization/Charit\u00e9"
                        },
                        "system": "https://www.charite.de/fhir/CodeSystem/lab-identifiers",
                        "type": {
                            "coding": [
                                {
                                    "code": "OBI",
                                    "system": "http://terminology.hl7.org/CodeSystem/v2-0203"
                                }
                            ]
                        },
                        "value": "2744-1_pH"
                    }
                ],
                "status": "final",
                "subject": {
                    "reference": "Patient/cee5063d-5374-4cc6-ac37-52cb733804c8"
                },
                "valueQuantity": {
                    "code": "[pH]",
                    "system": "http://unitsofmeasure.org",
                    "unit": "pH",
                    "value": 7.36
                },
                "resourceType": "Observation"
            }
        },
        {
            "request": {
                "method": "PUT",
                "url": "Observation/96a9196d-b303-4adb-8fb5-260d20344d6c"
            },
            "resource": {
                "id": "96a9196d-b303-4adb-8fb5-260d20344d6c",
                "meta": {
                    "profile": [
                        "https://www.netzwerk-universitaetsmedizin.de/fhir/StructureDefinition/oxygen-saturation"
                    ]
                },
                "category": [
                    {
                        "coding": [
                            {
                                "code": "vital-signs",
                                "system": "http://terminology.hl7.org/CodeSystem/observation-category"
                            }
                        ]
                    }
                ],
                "code": {
                    "coding": [
                        {
                            "code": "2708-6",
                            "display": "Oxygen saturation in Arterial blood",
                            "system": "http://loinc.org"
                        }
                    ],
                    "text": "Oxygen saturation"
                },
                "effectiveDateTime": "2020-11-17T10:50:58+01:00",
                "identifier": [
                    {
                        "assigner": {
                            "reference": "Organization/Charit\u00e9"
                        },
                        "system": "https://www.charite.de/fhir/CodeSystem/lab-identifiers",
                        "type": {
                            "coding": [
                                {
                                    "code": "OBI",
                                    "system": "http://terminology.hl7.org/CodeSystem/v2-0203"
                                }
                            ]
                        },
                        "value": "2708-6_OxygenSaturation"
                    }
                ],
                "status": "final",
                "subject": {
                    "reference": "Patient/cee5063d-5374-4cc6-ac37-52cb733804c8"
                },
                "valueQuantity": {
                    "code": "%",
                    "system": "http://unitsofmeasure.org",
                    "unit": "%",
                    "value": 96
                },
                "resourceType": "Observation"
            }
        },
        {
            "request": {
                "method": "PUT",
                "url": "Observation/a6599608-c8c3-46a2-bf0d-9b03ff6ca621"
            },
            "resource": {
                "id": "a6599608-c8c3-46a2-bf0d-9b03ff6ca621",
                "meta": {
                    "profile": [
                        "https://www.netzwerk-universitaetsmedizin.de/fhir/StructureDefinition/blood-gas-panel"
                    ]
                },
                "category": [
                    {
                        "coding": [
                            {
                                "code": "26436-6",
                                "system": "http://loinc.org"
                            },
                            {
                                "code": "laboratory",
                                "system": "http://terminology.hl7.org/CodeSystem/observation-category"
                            },
                            {
                                "code": "18767-4",
                                "system": "http://loinc.org"
                            }
                        ]
                    }
                ],
                "code": {
                    "coding": [
                        {
                            "code": "24336-0",
                            "display": "Gas panel (BldA)",
                            "system": "http://loinc.org"
                        }
                    ],
                    "text": "Gas panel - Arterial blood"
                },
                "effectiveDateTime": "2020-11-17T10:50:58+01:00",
                "hasMember": [
                    {
                        "reference": "Observation/5ae4fbf3-ad4b-42bc-b643-ce496462176f"
                    },
                    {
                        "reference": "Observation/5b6528c4-437e-4e10-9281-a5c60814e7e0"
                    },
                    {
                        "reference": "Observation/c671ac8a-f867-4b76-9c51-3a846f1c21d8"
                    },
                    {
                        "reference": "Observation/5f3f6a17-3ee7-4046-a4f3-a7953acd2755"
                    },
                    {
                        "reference": "Observation/96a9196d-b303-4adb-8fb5-260d20344d6c"
                    }
                ],
                "identifier": [
                    {
                        "assigner": {
                            "reference": "Organization/Charit\u00e9"
                        },
                        "system": "https://www.charite.de/fhir/CodeSystem/lab-identifiers",
                        "type": {
                            "coding": [
                                {
                                    "code": "OBI",
                                    "system": "http://terminology.hl7.org/CodeSystem/v2-0203"
                                }
                            ]
                        },
                        "value": "24336-0_gasPanelBldA"
                    }
                ],
                "status": "final",
                "subject": {
                    "reference": "Patient/cee5063d-5374-4cc6-ac37-52cb733804c8"
                },
                "resourceType": "Observation"
            }
        },
        {
            "request": {
                "method": "PUT",
                "url": "Observation/36ec3d24-8524-4d0b-b8db-35a260194845"
            },
            "resource": {
                "id": "36ec3d24-8524-4d0b-b8db-35a260194845",
                "meta": {
                    "profile": [
                        "https://www.netzwerk-universitaetsmedizin.de/fhir/StructureDefinition/sofa-score"
                    ]
                },
                "category": [
                    {
                        "coding": [
                            {
                                "code": "survey",
                                "system": "http://terminology.hl7.org/CodeSystem/observation-category"
                            }
                        ]
                    }
                ],
                "code": {
                    "coding": [
                        {
                            "code": "06",
                            "display": "SOFA-Score",
                            "system": "https://www.netzwerk-universitaetsmedizin.de/fhir/CodeSystem/ecrf-parameter-codes"
                        }
                    ],
                    "text": "Sepsis-related organ failure assessment score"
                },
                "component": [
                    {
                        "code": {
                            "coding": [
                                {
                                    "code": "resp",
                                    "display": "Respiratory system",
                                    "system": "https://www.netzwerk-universitaetsmedizin.de/fhir/CodeSystem/sofa-score"
                                }
                            ],
                            "text": "SOFA Respiratory system scoring category"
                        },
                        "valueCodeableConcept": {
                            "coding": [
                                {
                                    "code": "resp1",
                                    "display": "Respiratory system SOFA score 1",
                                    "system": "https://www.netzwerk-universitaetsmedizin.de/fhir/CodeSystem/sofa-score"
                                }
                            ],
                            "text": "PaO2/FiO2 [mmHg (kPa)] < 400 (53.3)"
                        }
                    },
                    {
                        "code": {
                            "coding": [
                                {
                                    "code": "ns",
                                    "display": "Nervous system",
                                    "system": "https://www.netzwerk-universitaetsmedizin.de/fhir/CodeSystem/sofa-score"
                                }
                            ],
                            "text": "SOFA Nervous system scoring category"
                        },
                        "valueCodeableConcept": {
                            "coding": [
                                {
                                    "code": "ns1",
                                    "display": "Nervous system SOFA score 1",
                                    "system": "https://www.netzwerk-universitaetsmedizin.de/fhir/CodeSystem/sofa-score"
                                }
                            ],
                            "text": "Glasgow Coma Scale (GCS) 13-14"
                        }
                    },
                    {
                        "code": {
                            "coding": [
                                {
                                    "code": "cvs",
                                    "display": "Cardiovascular system",
                                    "system": "https://www.netzwerk-universitaetsmedizin.de/fhir/CodeSystem/sofa-score"
                                }
                            ],
                            "text": "SOFA Cardiovascular system scoring category"
                        },
                        "valueCodeableConcept": {
                            "coding": [
                                {
                                    "code": "cvs1",
                                    "display": "Cardiovascular system SOFA score 1",
                                    "system": "https://www.netzwerk-universitaetsmedizin.de/fhir/CodeSystem/sofa-score"
                                }
                            ],
                            "text": "Mean arterial pressure (MAP) < 70 mmHg"
                        }
                    },
                    {
                        "code": {
                            "coding": [
                                {
                                    "code": "liv",
                                    "display": "Liver",
                                    "system": "https://www.netzwerk-universitaetsmedizin.de/fhir/CodeSystem/sofa-score"
                                }
                            ],
                            "text": "SOFA Liver scoring category"
                        },
                        "valueCodeableConcept": {
                            "coding": [
                                {
                                    "code": "liv3",
                                    "display": "Liver SOFA score 3",
                                    "system": "https://www.netzwerk-universitaetsmedizin.de/fhir/CodeSystem/sofa-score"
                                }
                            ],
                            "text": "Bilirubin (mg/dl) [umol/L] 6.0-11.9 [102-204]"
                        }
                    },
                    {
                        "code": {
                            "coding": [
                                {
                                    "code": "coa",
                                    "display": "Coagulation",
                                    "system": "https://www.netzwerk-universitaetsmedizin.de/fhir/CodeSystem/sofa-score"
                                }
                            ],
                            "text": "SOFA Coagulation scoring category"
                        },
                        "valueCodeableConcept": {
                            "coding": [
                                {
                                    "code": "coa0",
                                    "display": "Coagulation SOFA score 0",
                                    "system": "https://www.netzwerk-universitaetsmedizin.de/fhir/CodeSystem/sofa-score"
                                }
                            ],
                            "text": "Platelets\u00d710^3/ul ? 150"
                        }
                    },
                    {
                        "code": {
                            "coding": [
                                {
                                    "code": "kid",
                                    "display": "Kidneys",
                                    "system": "https://www.netzwerk-universitaetsmedizin.de/fhir/CodeSystem/sofa-score"
                                }
                            ],
                            "text": "SOFA Kidneys scoring category"
                        },
                        "valueCodeableConcept": {
                            "coding": [
                                {
                                    "code": "kid4",
                                    "display": "Kidneys SOFA score 4",
                                    "system": "https://www.netzwerk-universitaetsmedizin.de/fhir/CodeSystem/sofa-score"
                                }
                            ],
                            "text": "Creatinine (mg/dl) [umol/L] (or urine output) > 5.0 [> 440] (or < 200 ml/d)"
                        }
                    }
                ],
                "effectiveDateTime": "2020-11-17T10:50:58+01:00",
                "identifier": [
                    {
                        "assigner": {
                            "reference": "Organization/Charit\u00e9"
                        },
                        "system": "https://www.charite.de/fhir/CodeSystem/observation-identifiers",
                        "type": {
                            "coding": [
                                {
                                    "code": "OBI",
                                    "system": "http://terminology.hl7.org/CodeSystem/v2-0203"
                                }
                            ]
                        },
                        "value": "06_SOFA-Score"
                    }
                ],
                "status": "final",
                "subject": {
                    "reference": "Patient/cee5063d-5374-4cc6-ac37-52cb733804c8"
                },
                "resourceType": "Observation"
            }
        },
        {
            "request": {
                "method": "PUT",
                "url": "Observation/ca710010-eb4e-40d1-a744-68c841201f70"
            },
            "resource": {
                "id": "ca710010-eb4e-40d1-a744-68c841201f70",
                "meta": {
                    "profile": [
                        "https://www.netzwerk-universitaetsmedizin.de/fhir/StructureDefinition/heart-rate"
                    ]
                },
                "category": [
                    {
                        "coding": [
                            {
                                "code": "vital-signs",
                                "system": "http://terminology.hl7.org/CodeSystem/observation-category"
                            }
                        ]
                    }
                ],
                "code": {
                    "coding": [
                        {
                            "code": "8867-4",
                            "display": "Heart rate",
                            "system": "http://loinc.org"
                        },
                        {
                            "code": "364075005",
                            "display": "Heart rate (observable entity)",
                            "system": "http://snomed.info/sct"
                        }
                    ],
                    "text": "Heart rate"
                },
                "effectiveDateTime": "2020-11-17T10:50:58+01:00",
                "identifier": [
                    {
                        "assigner": {
                            "reference": "Organization/Charit\u00e9"
                        },
                        "system": "https://www.charite.de/fhir/CodeSystem/observation-identifiers",
                        "type": {
                            "coding": [
                                {
                                    "code": "OBI",
                                    "system": "http://terminology.hl7.org/CodeSystem/v2-0203"
                                }
                            ]
                        },
                        "value": "8867-4_HeartRate"
                    }
                ],
                "status": "final",
                "subject": {
                    "reference": "Patient/cee5063d-5374-4cc6-ac37-52cb733804c8"
                },
                "valueQuantity": {
                    "code": "/min",
                    "system": "http://unitsofmeasure.org",
                    "unit": "per minute",
                    "value": 87
                },
                "resourceType": "Observation"
            }
        },
        {
            "request": {
                "method": "PUT",
                "url": "Observation/762defb7-7e99-44a7-a8d7-760f31a06a16"
            },
            "resource": {
                "id": "762defb7-7e99-44a7-a8d7-760f31a06a16",
                "meta": {
                    "profile": [
                        "https://www.netzwerk-universitaetsmedizin.de/fhir/StructureDefinition/respiratory-rate"
                    ]
                },
                "category": [
                    {
                        "coding": [
                            {
                                "code": "vital-signs",
                                "system": "http://terminology.hl7.org/CodeSystem/observation-category"
                            }
                        ]
                    }
                ],
                "code": {
                    "coding": [
                        {
                            "code": "9279-1",
                            "display": "Respiratory rate",
                            "system": "http://loinc.org"
                        },
                        {
                            "code": "86290005",
                            "display": "Respiratory rate (observable entity)",
                            "system": "http://snomed.info/sct"
                        }
                    ],
                    "text": "Respiratory rate"
                },
                "effectiveDateTime": "2020-11-17T10:50:58+01:00",
                "identifier": [
                    {
                        "assigner": {
                            "reference": "Organization/Charit\u00e9"
                        },
                        "system": "https://www.charite.de/fhir/CodeSystem/observation-identifiers",
                        "type": {
                            "coding": [
                                {
                                    "code": "OBI",
                                    "system": "http://terminology.hl7.org/CodeSystem/v2-0203"
                                }
                            ]
                        },
                        "value": "9279-1_RespiratoryRate"
                    }
                ],
                "status": "final",
                "subject": {
                    "reference": "Patient/cee5063d-5374-4cc6-ac37-52cb733804c8"
                },
                "valueQuantity": {
                    "code": "/min",
                    "system": "http://unitsofmeasure.org",
                    "unit": "per minute",
                    "value": 46
                },
                "resourceType": "Observation"
            }
        },
        {
            "request": {
                "method": "PUT",
                "url": "Observation/c82513dc-2370-469a-a925-43d142853672"
            },
            "resource": {
                "id": "c82513dc-2370-469a-a925-43d142853672",
                "meta": {
                    "profile": [
                        "https://www.netzwerk-universitaetsmedizin.de/fhir/StructureDefinition/body-temperature"
                    ]
                },
                "category": [
                    {
                        "coding": [
                            {
                                "code": "vital-signs",
                                "system": "http://terminology.hl7.org/CodeSystem/observation-category"
                            }
                        ]
                    }
                ],
                "code": {
                    "coding": [
                        {
                            "code": "8310-5",
                            "display": "Body temperature",
                            "system": "http://loinc.org"
                        },
                        {
                            "code": "386725007",
                            "display": "Body temperature (observable entity)",
                            "system": "http://snomed.info/sct"
                        }
                    ],
                    "text": "Body temperature"
                },
                "effectiveDateTime": "2020-11-17T10:50:58+01:00",
                "identifier": [
                    {
                        "assigner": {
                            "reference": "Organization/Charit\u00e9"
                        },
                        "system": "https://www.charite.de/fhir/CodeSystem/observation-identifiers",
                        "type": {
                            "coding": [
                                {
                                    "code": "OBI",
                                    "system": "http://terminology.hl7.org/CodeSystem/v2-0203"
                                }
                            ]
                        },
                        "value": "8310-5_BodyTemperature"
                    }
                ],
                "status": "final",
                "subject": {
                    "reference": "Patient/cee5063d-5374-4cc6-ac37-52cb733804c8"
                },
                "valueQuantity": {
                    "code": "Cel",
                    "system": "http://unitsofmeasure.org",
                    "unit": "\u00b0C",
                    "value": 39.33
                },
                "resourceType": "Observation"
            }
        }
    ],
    "timestamp": "2020-11-17T10:50:58+01:00",
    "type": "transaction",
    "resourceType": "Bundle"
}
