{
    "meta": {
        "profile": [
            "https://www.netzwerk-universitaetsmedizin.de/fhir/StructureDefinition/gecco-bundle"
        ]
    },
    "entry": [
        {
            "request": {
                "method": "PUT",
                "url": "Patient/6c805ad2-1802-4b4c-ba1a-2da947f08551"
            },
            "resource": {
                "id": "6c805ad2-1802-4b4c-ba1a-2da947f08551",
                "meta": {
                    "profile": [
                        "https://www.netzwerk-universitaetsmedizin.de/fhir/StructureDefinition/Patient"
                    ]
                },
                "extension": [
                    {
                        "url": "https://www.netzwerk-universitaetsmedizin.de/fhir/StructureDefinition/ethnic-group",
                        "valueCoding": {
                            "code": "2135-2",
                            "display": "Hispanic or Latino",
                            "system": "urn:oid:2.16.840.1.113883.6.238"
                        }
                    },
                    {
                        "extension": [
                            {
                                "url": "dateTimeOfDocumentation",
                                "valueDateTime": "2020-11-17T10:51:11+01:00"
                            },
                            {
                                "url": "age",
                                "valueAge": {
                                    "code": "a",
                                    "system": "http://unitsofmeasure.org",
                                    "unit": "years",
                                    "value": 59
                                }
                            }
                        ],
                        "url": "https://www.netzwerk-universitaetsmedizin.de/fhir/StructureDefinition/age"
                    }
                ],
                "birthDate": "1961-02-22",
                "identifier": [
                    {
                        "assigner": {
                            "reference": "Organization/Charit\u00e9"
                        },
                        "system": "https://www.charite.de/fhir/CodeSystem/medical-record-numbers",
                        "type": {
                            "coding": [
                                {
                                    "code": "MR",
                                    "system": "http://terminology.hl7.org/CodeSystem/v2-0203"
                                }
                            ]
                        },
                        "value": "22528597"
                    }
                ],
                "resourceType": "Patient"
            }
        },
        {
            "request": {
                "method": "PUT",
                "url": "Observation/5abcedf0-48d0-48b5-b83a-8a6272362f5a"
            },
            "resource": {
                "id": "5abcedf0-48d0-48b5-b83a-8a6272362f5a",
                "meta": {
                    "profile": [
                        "https://www.netzwerk-universitaetsmedizin.de/fhir/StructureDefinition/sex-assigned-at-birth"
                    ]
                },
                "category": [
                    {
                        "coding": [
                            {
                                "code": "social-history",
                                "display": "Social History",
                                "system": "http://terminology.hl7.org/CodeSystem/observation-category"
                            }
                        ]
                    }
                ],
                "code": {
                    "coding": [
                        {
                            "code": "76689-9",
                            "display": "Sex assigned at birth",
                            "system": "http://loinc.org"
                        }
                    ]
                },
                "effectiveDateTime": "2020-11-17T10:51:11+01:00",
                "status": "final",
                "subject": {
                    "reference": "Patient/6c805ad2-1802-4b4c-ba1a-2da947f08551"
                },
                "valueCodeableConcept": {
                    "coding": [
                        {
                            "code": "unknown",
                            "display": "Unknown",
                            "system": "http://hl7.org/fhir/administrative-gender"
                        }
                    ],
                    "text": "Unknown"
                },
                "resourceType": "Observation"
            }
        },
        {
            "request": {
                "method": "PUT",
                "url": "Observation/6e5bf677-1876-4d3a-9d8d-94ce3e5e3da8"
            },
            "resource": {
                "id": "6e5bf677-1876-4d3a-9d8d-94ce3e5e3da8",
                "meta": {
                    "profile": [
                        "https://www.netzwerk-universitaetsmedizin.de/fhir/StructureDefinition/pregnancy-status"
                    ]
                },
                "category": [
                    {
                        "coding": [
                            {
                                "code": "social-history",
                                "system": "http://terminology.hl7.org/CodeSystem/observation-category"
                            }
                        ]
                    }
                ],
                "code": {
                    "coding": [
                        {
                            "code": "82810-3",
                            "display": "Pregnancy status",
                            "system": "http://loinc.org"
                        }
                    ],
                    "text": "Pregnancy status"
                },
                "effectiveDateTime": "2020-11-17T10:51:11+01:00",
                "identifier": [
                    {
                        "assigner": {
                            "reference": "Organization/Charit\u00e9"
                        },
                        "system": "https://www.charite.de/fhir/CodeSystem/observation-identifiers",
                        "type": {
                            "coding": [
                                {
                                    "code": "OBI",
                                    "system": "http://terminology.hl7.org/CodeSystem/v2-0203"
                                }
                            ]
                        },
                        "value": "82810-3_PregnancyStatus"
                    }
                ],
                "status": "final",
                "subject": {
                    "reference": "Patient/6c805ad2-1802-4b4c-ba1a-2da947f08551"
                },
                "valueCodeableConcept": {
                    "coding": [
                        {
                            "code": "LA26683-5",
                            "display": "Not pregnant",
                            "system": "http://loinc.org"
                        },
                        {
                            "code": "60001007",
                            "display": "Not pregnant (finding)",
                            "system": "http://snomed.info/sct"
                        }
                    ]
                },
                "resourceType": "Observation"
            }
        },
        {
            "request": {
                "method": "PUT",
                "url": "Observation/f77f6b35-82ae-4abe-89f0-c3acdde728f6"
            },
            "resource": {
                "id": "f77f6b35-82ae-4abe-89f0-c3acdde728f6",
                "meta": {
                    "profile": [
                        "https://www.netzwerk-universitaetsmedizin.de/fhir/StructureDefinition/frailty-score"
                    ]
                },
                "category": [
                    {
                        "coding": [
                            {
                                "code": "survey",
                                "system": "http://terminology.hl7.org/CodeSystem/observation-category"
                            }
                        ]
                    }
                ],
                "code": {
                    "coding": [
                        {
                            "code": "763264000",
                            "display": "Canadian Study of Health and Aging Clinical Frailty Scale score",
                            "system": "http://snomed.info/sct"
                        }
                    ],
                    "text": "Frailty Scale Score"
                },
                "effectiveDateTime": "2020-11-17T10:51:11+01:00",
                "identifier": [
                    {
                        "assigner": {
                            "reference": "Organization/Charit\u00e9"
                        },
                        "system": "https://www.charite.de/fhir/CodeSystem/observation-identifiers",
                        "type": {
                            "coding": [
                                {
                                    "code": "OBI",
                                    "system": "http://terminology.hl7.org/CodeSystem/v2-0203"
                                }
                            ]
                        },
                        "value": "763264000_FrailtyScaleScore"
                    }
                ],
                "method": {
                    "coding": [
                        {
                            "code": "445414007",
                            "display": "Canadian Study of Health and Aging clinical frailty scale",
                            "system": "http://snomed.info/sct"
                        }
                    ]
                },
                "status": "final",
                "subject": {
                    "reference": "Patient/6c805ad2-1802-4b4c-ba1a-2da947f08551"
                },
                "valueCodeableConcept": {
                    "coding": [
                        {
                            "code": "6",
                            "display": "Moderately Frail",
                            "system": "https://www.netzwerk-universitaetsmedizin.de/fhir/CodeSystem/frailty-score"
                        }
                    ]
                },
                "resourceType": "Observation"
            }
        },
        {
            "request": {
                "method": "PUT",
                "url": "Observation/97c89348-37f8-40ba-a6b6-bb01a40a25a4"
            },
            "resource": {
                "id": "97c89348-37f8-40ba-a6b6-bb01a40a25a4",
                "meta": {
                    "profile": [
                        "https://www.netzwerk-universitaetsmedizin.de/fhir/StructureDefinition/body-weight"
                    ]
                },
                "category": [
                    {
                        "coding": [
                            {
                                "code": "vital-signs",
                                "system": "http://terminology.hl7.org/CodeSystem/observation-category"
                            }
                        ]
                    }
                ],
                "code": {
                    "coding": [
                        {
                            "code": "29463-7",
                            "display": "Body weight",
                            "system": "http://loinc.org"
                        },
                        {
                            "code": "27113001",
                            "display": "Body weight (observable entity)",
                            "system": "http://snomed.info/sct"
                        }
                    ],
                    "text": "Body weight"
                },
                "effectiveDateTime": "2020-11-17T10:51:11+01:00",
                "identifier": [
                    {
                        "assigner": {
                            "reference": "Organization/Charit\u00e9"
                        },
                        "system": "https://www.charite.de/fhir/CodeSystem/observation-identifiers",
                        "type": {
                            "coding": [
                                {
                                    "code": "OBI",
                                    "system": "http://terminology.hl7.org/CodeSystem/v2-0203"
                                }
                            ]
                        },
                        "value": "29463-7_BodyWeight"
                    }
                ],
                "status": "final",
                "subject": {
                    "reference": "Patient/6c805ad2-1802-4b4c-ba1a-2da947f08551"
                },
                "valueQuantity": {
                    "code": "kg",
                    "system": "http://unitsofmeasure.org",
                    "unit": "kilogram",
                    "value": 56
                },
                "resourceType": "Observation"
            }
        },
        {
            "request": {
                "method": "PUT",
                "url": "Observation/836b4180-da0e-4395-b13c-4a0c7ffa3315"
            },
            "resource": {
                "id": "836b4180-da0e-4395-b13c-4a0c7ffa3315",
                "meta": {
                    "profile": [
                        "https://www.netzwerk-universitaetsmedizin.de/fhir/StructureDefinition/body-height"
                    ]
                },
                "category": [
                    {
                        "coding": [
                            {
                                "code": "vital-signs",
                                "system": "http://terminology.hl7.org/CodeSystem/observation-category"
                            }
                        ]
                    }
                ],
                "code": {
                    "coding": [
                        {
                            "code": "8302-2",
                            "display": "Body height",
                            "system": "http://loinc.org"
                        },
                        {
                            "code": "50373000",
                            "display": "Body height measure (observable entity)",
                            "system": "http://snomed.info/sct"
                        }
                    ],
                    "text": "Body height"
                },
                "effectiveDateTime": "2020-11-17T10:51:11+01:00",
                "identifier": [
                    {
                        "assigner": {
                            "reference": "Organization/Charit\u00e9"
                        },
                        "system": "https://www.charite.de/fhir/CodeSystem/observation-identifiers",
                        "type": {
                            "coding": [
                                {
                                    "code": "OBI",
                                    "system": "http://terminology.hl7.org/CodeSystem/v2-0203"
                                }
                            ]
                        },
                        "value": "8302-2_BodyHeight"
                    }
                ],
                "status": "final",
                "subject": {
                    "reference": "Patient/6c805ad2-1802-4b4c-ba1a-2da947f08551"
                },
                "valueQuantity": {
                    "code": "cm",
                    "system": "http://unitsofmeasure.org",
                    "unit": "centimeter",
                    "value": 174
                },
                "resourceType": "Observation"
            }
        },
        {
            "request": {
                "method": "POST",
                "url": "Condition"
            },
            "resource": {
                "id": "85bbd216-28d5-4051-bf9e-c5851dc72479",
                "meta": {
                    "profile": [
                        "https://www.netzwerk-universitaetsmedizin.de/fhir/StructureDefinition/chronic-lung-diseases"
                    ]
                },
                "category": [
                    {
                        "coding": [
                            {
                                "code": "418112009",
                                "display": "Pulmonary medicine",
                                "system": "http://snomed.info/sct"
                            }
                        ]
                    }
                ],
                "code": {
                    "coding": [
                        {
                            "code": "413839001",
                            "display": "Chronic lung disease",
                            "system": "http://snomed.info/sct"
                        }
                    ]
                },
                "recordedDate": "2020-11-17T10:51:11+01:00",
                "subject": {
                    "reference": "Patient/6c805ad2-1802-4b4c-ba1a-2da947f08551"
                },
                "verificationStatus": {
                    "coding": [
                        {
                            "code": "refuted",
                            "display": "Refuted",
                            "system": "http://terminology.hl7.org/CodeSystem/condition-ver-status"
                        },
                        {
                            "code": "410594000",
                            "display": "Definitely NOT present (qualifier value)",
                            "system": "http://snomed.info/sct"
                        }
                    ]
                },
                "resourceType": "Condition"
            }
        },
        {
            "request": {
                "method": "POST",
                "url": "Condition"
            },
            "resource": {
                "id": "b9d2ccb4-d15d-434d-a479-0f3cb9299147",
                "meta": {
                    "profile": [
                        "https://www.netzwerk-universitaetsmedizin.de/fhir/StructureDefinition/cardiovascular-diseases"
                    ]
                },
                "category": [
                    {
                        "coding": [
                            {
                                "code": "722414000",
                                "display": "Vascular medicine",
                                "system": "http://snomed.info/sct"
                            }
                        ]
                    }
                ],
                "code": {
                    "coding": [
                        {
                            "code": "49601007",
                            "display": "Cardiovascular disease",
                            "system": "http://snomed.info/sct"
                        }
                    ]
                },
                "recordedDate": "2020-11-17T10:51:11+01:00",
                "subject": {
                    "reference": "Patient/6c805ad2-1802-4b4c-ba1a-2da947f08551"
                },
                "verificationStatus": {
                    "coding": [
                        {
                            "code": "refuted",
                            "display": "Refuted",
                            "system": "http://terminology.hl7.org/CodeSystem/condition-ver-status"
                        },
                        {
                            "code": "410594000",
                            "display": "Definitely NOT present (qualifier value)",
                            "system": "http://snomed.info/sct"
                        }
                    ]
                },
                "resourceType": "Condition"
            }
        },
        {
            "request": {
                "method": "POST",
                "url": "Condition"
            },
            "resource": {
                "id": "7caf5e5d-dfd3-472e-b0aa-45e716fd7caa",
                "meta": {
                    "profile": [
                        "https://www.netzwerk-universitaetsmedizin.de/fhir/StructureDefinition/chronic-liver-diseases"
                    ]
                },
                "category": [
                    {
                        "coding": [
                            {
                                "code": "408472002",
                                "display": "Hepatology",
                                "system": "http://snomed.info/sct"
                            }
                        ]
                    }
                ],
                "clinicalStatus": {
                    "coding": [
                        {
                            "code": "active",
                            "display": "Active",
                            "system": "http://terminology.hl7.org/CodeSystem/condition-clinical"
                        }
                    ]
                },
                "code": {
                    "coding": [
                        {
                            "code": "328383001",
                            "display": "Chronic liver disease",
                            "system": "http://snomed.info/sct"
                        }
                    ]
                },
                "recordedDate": "2020-11-17T10:51:11+01:00",
                "subject": {
                    "reference": "Patient/6c805ad2-1802-4b4c-ba1a-2da947f08551"
                },
                "verificationStatus": {
                    "coding": [
                        {
                            "code": "confirmed",
                            "display": "Confirmed",
                            "system": "http://terminology.hl7.org/CodeSystem/condition-ver-status"
                        },
                        {
                            "code": "410605003",
                            "display": "Confirmed present (qualifier value)",
                            "system": "http://snomed.info/sct"
                        }
                    ]
                },
                "resourceType": "Condition"
            }
        },
        {
            "request": {
                "method": "POST",
                "url": "Condition"
            },
            "resource": {
                "id": "76749694-133f-47d8-a5ba-4f9dd2c474b9",
                "meta": {
                    "profile": [
                        "https://www.netzwerk-universitaetsmedizin.de/fhir/StructureDefinition/chronic-liver-diseases"
                    ]
                },
                "category": [
                    {
                        "coding": [
                            {
                                "code": "408472002",
                                "display": "Hepatology",
                                "system": "http://snomed.info/sct"
                            }
                        ]
                    }
                ],
                "clinicalStatus": {
                    "coding": [
                        {
                            "code": "active",
                            "display": "Active",
                            "system": "http://terminology.hl7.org/CodeSystem/condition-clinical"
                        }
                    ]
                },
                "code": {
                    "coding": [
                        {
                            "code": "197321007",
                            "display": "Steatosis of liver",
                            "system": "http://snomed.info/sct"
                        }
                    ]
                },
                "recordedDate": "2020-11-17T10:51:11+01:00",
                "subject": {
                    "reference": "Patient/6c805ad2-1802-4b4c-ba1a-2da947f08551"
                },
                "verificationStatus": {
                    "coding": [
                        {
                            "code": "confirmed",
                            "display": "Confirmed",
                            "system": "http://terminology.hl7.org/CodeSystem/condition-ver-status"
                        },
                        {
                            "code": "410605003",
                            "display": "Confirmed present (qualifier value)",
                            "system": "http://snomed.info/sct"
                        }
                    ]
                },
                "resourceType": "Condition"
            }
        },
        {
            "request": {
                "method": "POST",
                "url": "Condition"
            },
            "resource": {
                "id": "5fe1e28d-2c64-4058-b08f-b665db38a7c6",
                "meta": {
                    "profile": [
                        "https://www.netzwerk-universitaetsmedizin.de/fhir/StructureDefinition/chronic-liver-diseases"
                    ]
                },
                "category": [
                    {
                        "coding": [
                            {
                                "code": "408472002",
                                "display": "Hepatology",
                                "system": "http://snomed.info/sct"
                            }
                        ]
                    }
                ],
                "clinicalStatus": {
                    "coding": [
                        {
                            "code": "active",
                            "display": "Active",
                            "system": "http://terminology.hl7.org/CodeSystem/condition-clinical"
                        }
                    ]
                },
                "code": {
                    "coding": [
                        {
                            "code": "19943007",
                            "display": "Cirrhosis of liver",
                            "system": "http://snomed.info/sct"
                        }
                    ]
                },
                "recordedDate": "2020-11-17T10:51:11+01:00",
                "subject": {
                    "reference": "Patient/6c805ad2-1802-4b4c-ba1a-2da947f08551"
                },
                "verificationStatus": {
                    "coding": [
                        {
                            "code": "confirmed",
                            "display": "Confirmed",
                            "system": "http://terminology.hl7.org/CodeSystem/condition-ver-status"
                        },
                        {
                            "code": "410605003",
                            "display": "Confirmed present (qualifier value)",
                            "system": "http://snomed.info/sct"
                        }
                    ]
                },
                "resourceType": "Condition"
            }
        },
        {
            "request": {
                "method": "POST",
                "url": "Condition"
            },
            "resource": {
                "id": "02a7015c-8a19-4cb4-bcad-8fd189d7b645",
                "meta": {
                    "profile": [
                        "https://www.netzwerk-universitaetsmedizin.de/fhir/StructureDefinition/chronic-liver-diseases"
                    ]
                },
                "category": [
                    {
                        "coding": [
                            {
                                "code": "408472002",
                                "display": "Hepatology",
                                "system": "http://snomed.info/sct"
                            }
                        ]
                    }
                ],
                "clinicalStatus": {
                    "coding": [
                        {
                            "code": "active",
                            "display": "Active",
                            "system": "http://terminology.hl7.org/CodeSystem/condition-clinical"
                        }
                    ]
                },
                "code": {
                    "coding": [
                        {
                            "code": "10295004",
                            "display": "Chronic viral hepatitis",
                            "system": "http://snomed.info/sct"
                        }
                    ]
                },
                "recordedDate": "2020-11-17T10:51:11+01:00",
                "subject": {
                    "reference": "Patient/6c805ad2-1802-4b4c-ba1a-2da947f08551"
                },
                "verificationStatus": {
                    "coding": [
                        {
                            "code": "confirmed",
                            "display": "Confirmed",
                            "system": "http://terminology.hl7.org/CodeSystem/condition-ver-status"
                        },
                        {
                            "code": "410605003",
                            "display": "Confirmed present (qualifier value)",
                            "system": "http://snomed.info/sct"
                        }
                    ]
                },
                "resourceType": "Condition"
            }
        },
        {
            "request": {
                "method": "POST",
                "url": "Condition"
            },
            "resource": {
                "id": "617c67e9-ae33-4dad-9ec9-dfa9bd48f58c",
                "meta": {
                    "profile": [
                        "https://www.netzwerk-universitaetsmedizin.de/fhir/StructureDefinition/chronic-liver-diseases"
                    ]
                },
                "category": [
                    {
                        "coding": [
                            {
                                "code": "408472002",
                                "display": "Hepatology",
                                "system": "http://snomed.info/sct"
                            }
                        ]
                    }
                ],
                "clinicalStatus": {
                    "coding": [
                        {
                            "code": "active",
                            "display": "Active",
                            "system": "http://terminology.hl7.org/CodeSystem/condition-clinical"
                        }
                    ]
                },
                "code": {
                    "coding": [
                        {
                            "code": "235890007",
                            "display": "Autoimmune liver disease",
                            "system": "http://snomed.info/sct"
                        }
                    ]
                },
                "recordedDate": "2020-11-17T10:51:11+01:00",
                "subject": {
                    "reference": "Patient/6c805ad2-1802-4b4c-ba1a-2da947f08551"
                },
                "verificationStatus": {
                    "coding": [
                        {
                            "code": "confirmed",
                            "display": "Confirmed",
                            "system": "http://terminology.hl7.org/CodeSystem/condition-ver-status"
                        },
                        {
                            "code": "410605003",
                            "display": "Confirmed present (qualifier value)",
                            "system": "http://snomed.info/sct"
                        }
                    ]
                },
                "resourceType": "Condition"
            }
        },
        {
            "request": {
                "method": "POST",
                "url": "Condition"
            },
            "resource": {
                "id": "783d3c9d-c6fe-414d-aed6-0a79ff1cbde8",
                "meta": {
                    "profile": [
                        "https://www.netzwerk-universitaetsmedizin.de/fhir/StructureDefinition/rheumatological-immunological-diseases"
                    ]
                },
                "extension": [
                    {
                        "url": "https://www.netzwerk-universitaetsmedizin.de/fhir/StructureDefinition/uncertainty-of-presence",
                        "valueCodeableConcept": {
                            "coding": [
                                {
                                    "code": "261665006",
                                    "display": "Unknown (qualifier value)",
                                    "system": "http://snomed.info/sct"
                                }
                            ],
                            "text": "Presence of condition is unknown."
                        }
                    }
                ],
                "category": [
                    {
                        "coding": [
                            {
                                "code": "394810000",
                                "display": "Rheumatology",
                                "system": "http://snomed.info/sct"
                            },
                            {
                                "code": "408480009",
                                "display": "Clinical immunology",
                                "system": "http://snomed.info/sct"
                            }
                        ]
                    }
                ],
                "code": {
                    "coding": [
                        {
                            "code": "396332003",
                            "display": "Rheumatism",
                            "system": "http://snomed.info/sct"
                        }
                    ]
                },
                "recordedDate": "2020-11-17T10:51:11+01:00",
                "subject": {
                    "reference": "Patient/6c805ad2-1802-4b4c-ba1a-2da947f08551"
                },
                "resourceType": "Condition"
            }
        },
        {
            "request": {
                "method": "POST",
                "url": "Condition"
            },
            "resource": {
                "id": "227efdf9-b14f-4fec-bf70-075cc4863dd9",
                "meta": {
                    "profile": [
                        "https://www.netzwerk-universitaetsmedizin.de/fhir/StructureDefinition/human-immunodeficiency-virus-infection"
                    ]
                },
                "category": [
                    {
                        "coding": [
                            {
                                "code": "394807007",
                                "display": "Infectious diseases (specialty)",
                                "system": "http://snomed.info/sct"
                            }
                        ]
                    }
                ],
                "code": {
                    "coding": [
                        {
                            "code": "86406008",
                            "display": "Human immunodeficiency virus infection",
                            "system": "http://snomed.info/sct"
                        }
                    ]
                },
                "recordedDate": "2020-11-17T10:51:11+01:00",
                "subject": {
                    "reference": "Patient/6c805ad2-1802-4b4c-ba1a-2da947f08551"
                },
                "verificationStatus": {
                    "coding": [
                        {
                            "code": "refuted",
                            "display": "Refuted",
                            "system": "http://terminology.hl7.org/CodeSystem/condition-ver-status"
                        },
                        {
                            "code": "410594000",
                            "display": "Definitely NOT present (qualifier value)",
                            "system": "http://snomed.info/sct"
                        }
                    ]
                },
                "resourceType": "Condition"
            }
        },
        {
            "request": {
                "method": "POST",
                "url": "Condition"
            },
            "resource": {
                "id": "77a3a5dc-4b24-4ce6-b1a5-6bb552dd8dd6",
                "meta": {
                    "profile": [
                        "https://www.netzwerk-universitaetsmedizin.de/fhir/StructureDefinition/organ-recipient"
                    ]
                },
                "category": [
                    {
                        "coding": [
                            {
                                "code": "788415003",
                                "display": "Transplant medicine",
                                "system": "http://snomed.info/sct"
                            }
                        ]
                    }
                ],
                "code": {
                    "coding": [
                        {
                            "code": "161663000",
                            "display": "History of being a tissue or organ recipient",
                            "system": "http://snomed.info/sct"
                        }
                    ]
                },
                "recordedDate": "2020-11-17T10:51:11+01:00",
                "subject": {
                    "reference": "Patient/6c805ad2-1802-4b4c-ba1a-2da947f08551"
                },
                "verificationStatus": {
                    "coding": [
                        {
                            "code": "refuted",
                            "display": "Refuted",
                            "system": "http://terminology.hl7.org/CodeSystem/condition-ver-status"
                        },
                        {
                            "code": "410594000",
                            "display": "Definitely NOT present (qualifier value)",
                            "system": "http://snomed.info/sct"
                        }
                    ]
                },
                "resourceType": "Condition"
            }
        },
        {
            "request": {
                "method": "POST",
                "url": "Condition"
            },
            "resource": {
                "id": "1ff57085-f67e-47fd-b5ef-ea89405b0755",
                "meta": {
                    "profile": [
                        "https://www.netzwerk-universitaetsmedizin.de/fhir/StructureDefinition/diabetes-mellitus"
                    ]
                },
                "category": [
                    {
                        "coding": [
                            {
                                "code": "408475000",
                                "display": "Diabetic medicine",
                                "system": "http://snomed.info/sct"
                            }
                        ]
                    }
                ],
                "clinicalStatus": {
                    "coding": [
                        {
                            "code": "active",
                            "display": "Active",
                            "system": "http://terminology.hl7.org/CodeSystem/condition-clinical"
                        }
                    ]
                },
                "code": {
                    "coding": [
                        {
                            "code": "73211009",
                            "display": "Diabetes mellitus",
                            "system": "http://snomed.info/sct"
                        }
                    ]
                },
                "recordedDate": "2020-11-17T10:51:11+01:00",
                "subject": {
                    "reference": "Patient/6c805ad2-1802-4b4c-ba1a-2da947f08551"
                },
                "verificationStatus": {
                    "coding": [
                        {
                            "code": "confirmed",
                            "display": "Confirmed",
                            "system": "http://terminology.hl7.org/CodeSystem/condition-ver-status"
                        },
                        {
                            "code": "410605003",
                            "display": "Confirmed present (qualifier value)",
                            "system": "http://snomed.info/sct"
                        }
                    ]
                },
                "resourceType": "Condition"
            }
        },
        {
            "request": {
                "method": "POST",
                "url": "Condition"
            },
            "resource": {
                "id": "bf8763ce-19f0-4b14-9b6e-1f1663451a2d",
                "meta": {
                    "profile": [
                        "https://www.netzwerk-universitaetsmedizin.de/fhir/StructureDefinition/diabetes-mellitus"
                    ]
                },
                "category": [
                    {
                        "coding": [
                            {
                                "code": "408475000",
                                "display": "Diabetic medicine",
                                "system": "http://snomed.info/sct"
                            }
                        ]
                    }
                ],
                "clinicalStatus": {
                    "coding": [
                        {
                            "code": "active",
                            "display": "Active",
                            "system": "http://terminology.hl7.org/CodeSystem/condition-clinical"
                        }
                    ]
                },
                "code": {
                    "coding": [
                        {
                            "code": "44054006",
                            "display": "Diabetes mellitus type 2",
                            "system": "http://snomed.info/sct"
                        }
                    ]
                },
                "recordedDate": "2020-11-17T10:51:11+01:00",
                "subject": {
                    "reference": "Patient/6c805ad2-1802-4b4c-ba1a-2da947f08551"
                },
                "verificationStatus": {
                    "coding": [
                        {
                            "code": "confirmed",
                            "display": "Confirmed",
                            "system": "http://terminology.hl7.org/CodeSystem/condition-ver-status"
                        },
                        {
                            "code": "410605003",
                            "display": "Confirmed present (qualifier value)",
                            "system": "http://snomed.info/sct"
                        }
                    ]
                },
                "resourceType": "Condition"
            }
        },
        {
            "request": {
                "method": "POST",
                "url": "Condition"
            },
            "resource": {
                "id": "821bc8e4-5957-4a8b-8a09-a8724f0422db",
                "meta": {
                    "profile": [
                        "https://www.netzwerk-universitaetsmedizin.de/fhir/StructureDefinition/malignant-neoplastic-disease"
                    ]
                },
                "extension": [
                    {
                        "url": "https://www.netzwerk-universitaetsmedizin.de/fhir/StructureDefinition/uncertainty-of-presence",
                        "valueCodeableConcept": {
                            "coding": [
                                {
                                    "code": "261665006",
                                    "display": "Unknown (qualifier value)",
                                    "system": "http://snomed.info/sct"
                                }
                            ],
                            "text": "Presence of condition is unknown."
                        }
                    }
                ],
                "category": [
                    {
                        "coding": [
                            {
                                "code": "394593009",
                                "display": "Medical oncology (qualifier value)",
                                "system": "http://snomed.info/sct"
                            }
                        ]
                    }
                ],
                "code": {
                    "coding": [
                        {
                            "code": "363346000",
                            "display": "Malignant neoplastic disease",
                            "system": "http://snomed.info/sct"
                        }
                    ]
                },
                "recordedDate": "2020-11-17T10:51:11+01:00",
                "subject": {
                    "reference": "Patient/6c805ad2-1802-4b4c-ba1a-2da947f08551"
                },
                "resourceType": "Condition"
            }
        },
        {
            "request": {
                "method": "PUT",
                "url": "Observation/922df39f-96d0-4d7b-960b-c216d967d620"
            },
            "resource": {
                "id": "922df39f-96d0-4d7b-960b-c216d967d620",
                "meta": {
                    "profile": [
                        "https://www.netzwerk-universitaetsmedizin.de/fhir/StructureDefinition/smoking-status"
                    ]
                },
                "category": [
                    {
                        "coding": [
                            {
                                "code": "social-history",
                                "display": "Social History",
                                "system": "http://terminology.hl7.org/CodeSystem/observation-category"
                            }
                        ]
                    }
                ],
                "code": {
                    "coding": [
                        {
                            "code": "72166-2",
                            "display": "Tobacco smoking status",
                            "system": "http://loinc.org"
                        }
                    ]
                },
                "effectiveDateTime": "2020-11-17T10:51:11+01:00",
                "status": "final",
                "subject": {
                    "reference": "Patient/6c805ad2-1802-4b4c-ba1a-2da947f08551"
                },
                "valueCodeableConcept": {
                    "coding": [
                        {
                            "code": "LA18976-3",
                            "display": "Current every day smoker",
                            "system": "http://loinc.org"
                        }
                    ],
                    "text": "Patient is smoker"
                },
                "resourceType": "Observation"
            }
        },
        {
            "request": {
                "method": "POST",
                "url": "Condition"
            },
            "resource": {
                "id": "1f72ca0e-8e40-46a5-b4ca-11e2c1803a14",
                "meta": {
                    "profile": [
                        "https://www.netzwerk-universitaetsmedizin.de/fhir/StructureDefinition/chronic-neurological-mental-diseases"
                    ]
                },
                "extension": [
                    {
                        "url": "https://www.netzwerk-universitaetsmedizin.de/fhir/StructureDefinition/uncertainty-of-presence",
                        "valueCodeableConcept": {
                            "coding": [
                                {
                                    "code": "261665006",
                                    "display": "Unknown (qualifier value)",
                                    "system": "http://snomed.info/sct"
                                }
                            ],
                            "text": "Presence of condition is unknown."
                        }
                    }
                ],
                "category": [
                    {
                        "coding": [
                            {
                                "code": "394591006",
                                "display": "Neurology",
                                "system": "http://snomed.info/sct"
                            },
                            {
                                "code": "394587001",
                                "display": "Psychiatry",
                                "system": "http://snomed.info/sct"
                            }
                        ]
                    }
                ],
                "code": {
                    "coding": [
                        {
                            "code": "74732009",
                            "display": "Mental disorder",
                            "system": "http://snomed.info/sct"
                        }
                    ]
                },
                "recordedDate": "2020-11-17T10:51:11+01:00",
                "subject": {
                    "reference": "Patient/6c805ad2-1802-4b4c-ba1a-2da947f08551"
                },
                "resourceType": "Condition"
            }
        },
        {
            "request": {
                "method": "POST",
                "url": "Condition"
            },
            "resource": {
                "id": "4e3ea250-a8d7-4eff-a555-9748a77e4462",
                "meta": {
                    "profile": [
                        "https://www.netzwerk-universitaetsmedizin.de/fhir/StructureDefinition/chronic-neurological-mental-diseases"
                    ]
                },
                "category": [
                    {
                        "coding": [
                            {
                                "code": "394591006",
                                "display": "Neurology",
                                "system": "http://snomed.info/sct"
                            },
                            {
                                "code": "394587001",
                                "display": "Psychiatry",
                                "system": "http://snomed.info/sct"
                            }
                        ]
                    }
                ],
                "clinicalStatus": {
                    "coding": [
                        {
                            "code": "active",
                            "display": "Active",
                            "system": "http://terminology.hl7.org/CodeSystem/condition-clinical"
                        }
                    ]
                },
                "code": {
                    "coding": [
                        {
                            "code": "128283000",
                            "display": "Chronic nervous system disorder",
                            "system": "http://snomed.info/sct"
                        }
                    ]
                },
                "recordedDate": "2020-11-17T10:51:11+01:00",
                "subject": {
                    "reference": "Patient/6c805ad2-1802-4b4c-ba1a-2da947f08551"
                },
                "verificationStatus": {
                    "coding": [
                        {
                            "code": "confirmed",
                            "display": "Confirmed",
                            "system": "http://terminology.hl7.org/CodeSystem/condition-ver-status"
                        },
                        {
                            "code": "410605003",
                            "display": "Confirmed present (qualifier value)",
                            "system": "http://snomed.info/sct"
                        }
                    ]
                },
                "resourceType": "Condition"
            }
        },
        {
            "request": {
                "method": "POST",
                "url": "Condition"
            },
            "resource": {
                "id": "a47ede81-4665-4a39-a77c-5eb721687ba5",
                "meta": {
                    "profile": [
                        "https://www.netzwerk-universitaetsmedizin.de/fhir/StructureDefinition/chronic-neurological-mental-diseases"
                    ]
                },
                "category": [
                    {
                        "coding": [
                            {
                                "code": "394591006",
                                "display": "Neurology",
                                "system": "http://snomed.info/sct"
                            },
                            {
                                "code": "394587001",
                                "display": "Psychiatry",
                                "system": "http://snomed.info/sct"
                            }
                        ]
                    }
                ],
                "clinicalStatus": {
                    "coding": [
                        {
                            "code": "active",
                            "display": "Active",
                            "system": "http://terminology.hl7.org/CodeSystem/condition-clinical"
                        }
                    ]
                },
                "code": {
                    "coding": [
                        {
                            "code": "49049000",
                            "display": "Parkinson's disease",
                            "system": "http://snomed.info/sct"
                        }
                    ]
                },
                "recordedDate": "2020-11-17T10:51:11+01:00",
                "subject": {
                    "reference": "Patient/6c805ad2-1802-4b4c-ba1a-2da947f08551"
                },
                "verificationStatus": {
                    "coding": [
                        {
                            "code": "confirmed",
                            "display": "Confirmed",
                            "system": "http://terminology.hl7.org/CodeSystem/condition-ver-status"
                        },
                        {
                            "code": "410605003",
                            "display": "Confirmed present (qualifier value)",
                            "system": "http://snomed.info/sct"
                        }
                    ]
                },
                "resourceType": "Condition"
            }
        },
        {
            "request": {
                "method": "POST",
                "url": "Condition"
            },
            "resource": {
                "id": "2089b23e-61d0-4056-a8df-10573f1de2c5",
                "meta": {
                    "profile": [
                        "https://www.netzwerk-universitaetsmedizin.de/fhir/StructureDefinition/chronic-neurological-mental-diseases"
                    ]
                },
                "category": [
                    {
                        "coding": [
                            {
                                "code": "394591006",
                                "display": "Neurology",
                                "system": "http://snomed.info/sct"
                            },
                            {
                                "code": "394587001",
                                "display": "Psychiatry",
                                "system": "http://snomed.info/sct"
                            }
                        ]
                    }
                ],
                "clinicalStatus": {
                    "coding": [
                        {
                            "code": "active",
                            "display": "Active",
                            "system": "http://terminology.hl7.org/CodeSystem/condition-clinical"
                        }
                    ]
                },
                "code": {
                    "coding": [
                        {
                            "code": "52448006",
                            "display": "Dementia",
                            "system": "http://snomed.info/sct"
                        }
                    ]
                },
                "recordedDate": "2020-11-17T10:51:11+01:00",
                "subject": {
                    "reference": "Patient/6c805ad2-1802-4b4c-ba1a-2da947f08551"
                },
                "verificationStatus": {
                    "coding": [
                        {
                            "code": "confirmed",
                            "display": "Confirmed",
                            "system": "http://terminology.hl7.org/CodeSystem/condition-ver-status"
                        },
                        {
                            "code": "410605003",
                            "display": "Confirmed present (qualifier value)",
                            "system": "http://snomed.info/sct"
                        }
                    ]
                },
                "resourceType": "Condition"
            }
        },
        {
            "request": {
                "method": "POST",
                "url": "Condition"
            },
            "resource": {
                "id": "0e5c6307-25aa-4b82-be0f-19a9933ebff5",
                "meta": {
                    "profile": [
                        "https://www.netzwerk-universitaetsmedizin.de/fhir/StructureDefinition/chronic-neurological-mental-diseases"
                    ]
                },
                "category": [
                    {
                        "coding": [
                            {
                                "code": "394591006",
                                "display": "Neurology",
                                "system": "http://snomed.info/sct"
                            },
                            {
                                "code": "394587001",
                                "display": "Psychiatry",
                                "system": "http://snomed.info/sct"
                            }
                        ]
                    }
                ],
                "clinicalStatus": {
                    "coding": [
                        {
                            "code": "active",
                            "display": "Active",
                            "system": "http://terminology.hl7.org/CodeSystem/condition-clinical"
                        }
                    ]
                },
                "code": {
                    "coding": [
                        {
                            "code": "24700007",
                            "display": "Multiple sclerosis",
                            "system": "http://snomed.info/sct"
                        }
                    ]
                },
                "recordedDate": "2020-11-17T10:51:11+01:00",
                "subject": {
                    "reference": "Patient/6c805ad2-1802-4b4c-ba1a-2da947f08551"
                },
                "verificationStatus": {
                    "coding": [
                        {
                            "code": "confirmed",
                            "display": "Confirmed",
                            "system": "http://terminology.hl7.org/CodeSystem/condition-ver-status"
                        },
                        {
                            "code": "410605003",
                            "display": "Confirmed present (qualifier value)",
                            "system": "http://snomed.info/sct"
                        }
                    ]
                },
                "resourceType": "Condition"
            }
        },
        {
            "request": {
                "method": "POST",
                "url": "Condition"
            },
            "resource": {
                "id": "d328b224-ea6b-4c1c-8d03-e7a5684c7afd",
                "meta": {
                    "profile": [
                        "https://www.netzwerk-universitaetsmedizin.de/fhir/StructureDefinition/chronic-neurological-mental-diseases"
                    ]
                },
                "extension": [
                    {
                        "url": "https://www.netzwerk-universitaetsmedizin.de/fhir/StructureDefinition/uncertainty-of-presence",
                        "valueCodeableConcept": {
                            "coding": [
                                {
                                    "code": "261665006",
                                    "display": "Unknown (qualifier value)",
                                    "system": "http://snomed.info/sct"
                                }
                            ],
                            "text": "Presence of condition is unknown."
                        }
                    }
                ],
                "category": [
                    {
                        "coding": [
                            {
                                "code": "394591006",
                                "display": "Neurology",
                                "system": "http://snomed.info/sct"
                            },
                            {
                                "code": "394587001",
                                "display": "Psychiatry",
                                "system": "http://snomed.info/sct"
                            }
                        ]
                    }
                ],
                "code": {
                    "coding": [
                        {
                            "code": "257277002",
                            "display": "Combined disorder of muscle AND peripheral nerve",
                            "system": "http://snomed.info/sct"
                        }
                    ]
                },
                "recordedDate": "2020-11-17T10:51:11+01:00",
                "subject": {
                    "reference": "Patient/6c805ad2-1802-4b4c-ba1a-2da947f08551"
                },
                "resourceType": "Condition"
            }
        },
        {
            "request": {
                "method": "POST",
                "url": "Condition"
            },
            "resource": {
                "id": "8d60fa1b-d8b4-4024-8640-d9785cdcb7fd",
                "meta": {
                    "profile": [
                        "https://www.netzwerk-universitaetsmedizin.de/fhir/StructureDefinition/chronic-neurological-mental-diseases"
                    ]
                },
                "category": [
                    {
                        "coding": [
                            {
                                "code": "394591006",
                                "display": "Neurology",
                                "system": "http://snomed.info/sct"
                            },
                            {
                                "code": "394587001",
                                "display": "Psychiatry",
                                "system": "http://snomed.info/sct"
                            }
                        ]
                    }
                ],
                "clinicalStatus": {
                    "coding": [
                        {
                            "code": "active",
                            "display": "Active",
                            "system": "http://terminology.hl7.org/CodeSystem/condition-clinical"
                        }
                    ]
                },
                "code": {
                    "coding": [
                        {
                            "code": "84757009",
                            "display": "Epilepsy",
                            "system": "http://snomed.info/sct"
                        }
                    ]
                },
                "recordedDate": "2020-11-17T10:51:11+01:00",
                "subject": {
                    "reference": "Patient/6c805ad2-1802-4b4c-ba1a-2da947f08551"
                },
                "verificationStatus": {
                    "coding": [
                        {
                            "code": "confirmed",
                            "display": "Confirmed",
                            "system": "http://terminology.hl7.org/CodeSystem/condition-ver-status"
                        },
                        {
                            "code": "410605003",
                            "display": "Confirmed present (qualifier value)",
                            "system": "http://snomed.info/sct"
                        }
                    ]
                },
                "resourceType": "Condition"
            }
        },
        {
            "request": {
                "method": "POST",
                "url": "Condition"
            },
            "resource": {
                "id": "1e5cce38-d4e7-4736-ba20-32ef4a28e0a3",
                "meta": {
                    "profile": [
                        "https://www.netzwerk-universitaetsmedizin.de/fhir/StructureDefinition/chronic-neurological-mental-diseases"
                    ]
                },
                "category": [
                    {
                        "coding": [
                            {
                                "code": "394591006",
                                "display": "Neurology",
                                "system": "http://snomed.info/sct"
                            },
                            {
                                "code": "394587001",
                                "display": "Psychiatry",
                                "system": "http://snomed.info/sct"
                            }
                        ]
                    }
                ],
                "code": {
                    "coding": [
                        {
                            "code": "37796009",
                            "display": "Migraine",
                            "system": "http://snomed.info/sct"
                        }
                    ]
                },
                "recordedDate": "2020-11-17T10:51:11+01:00",
                "subject": {
                    "reference": "Patient/6c805ad2-1802-4b4c-ba1a-2da947f08551"
                },
                "verificationStatus": {
                    "coding": [
                        {
                            "code": "refuted",
                            "display": "Refuted",
                            "system": "http://terminology.hl7.org/CodeSystem/condition-ver-status"
                        },
                        {
                            "code": "410594000",
                            "display": "Definitely NOT present (qualifier value)",
                            "system": "http://snomed.info/sct"
                        }
                    ]
                },
                "resourceType": "Condition"
            }
        },
        {
            "request": {
                "method": "POST",
                "url": "Condition"
            },
            "resource": {
                "id": "05056fe6-90b9-472a-8bb4-1f7d82db36ce",
                "meta": {
                    "profile": [
                        "https://www.netzwerk-universitaetsmedizin.de/fhir/StructureDefinition/chronic-neurological-mental-diseases"
                    ]
                },
                "extension": [
                    {
                        "url": "https://www.netzwerk-universitaetsmedizin.de/fhir/StructureDefinition/uncertainty-of-presence",
                        "valueCodeableConcept": {
                            "coding": [
                                {
                                    "code": "261665006",
                                    "display": "Unknown (qualifier value)",
                                    "system": "http://snomed.info/sct"
                                }
                            ],
                            "text": "Presence of condition is unknown."
                        }
                    }
                ],
                "category": [
                    {
                        "coding": [
                            {
                                "code": "394591006",
                                "display": "Neurology",
                                "system": "http://snomed.info/sct"
                            },
                            {
                                "code": "394587001",
                                "display": "Psychiatry",
                                "system": "http://snomed.info/sct"
                            }
                        ]
                    }
                ],
                "code": {
                    "coding": [
                        {
                            "code": "440140008",
                            "display": "History of cerebrovascular accident with residual deficit",
                            "system": "http://snomed.info/sct"
                        }
                    ]
                },
                "recordedDate": "2020-11-17T10:51:11+01:00",
                "subject": {
                    "reference": "Patient/6c805ad2-1802-4b4c-ba1a-2da947f08551"
                },
                "resourceType": "Condition"
            }
        },
        {
            "request": {
                "method": "POST",
                "url": "Condition"
            },
            "resource": {
                "id": "744ddf0e-126f-44cd-8062-d9fda5a57ecb",
                "meta": {
                    "profile": [
                        "https://www.netzwerk-universitaetsmedizin.de/fhir/StructureDefinition/chronic-neurological-mental-diseases"
                    ]
                },
                "category": [
                    {
                        "coding": [
                            {
                                "code": "394591006",
                                "display": "Neurology",
                                "system": "http://snomed.info/sct"
                            },
                            {
                                "code": "394587001",
                                "display": "Psychiatry",
                                "system": "http://snomed.info/sct"
                            }
                        ]
                    }
                ],
                "code": {
                    "coding": [
                        {
                            "code": "429993008",
                            "display": "History of cerebrovascular accident without residual deficits",
                            "system": "http://snomed.info/sct"
                        }
                    ]
                },
                "recordedDate": "2020-11-17T10:51:11+01:00",
                "subject": {
                    "reference": "Patient/6c805ad2-1802-4b4c-ba1a-2da947f08551"
                },
                "verificationStatus": {
                    "coding": [
                        {
                            "code": "refuted",
                            "display": "Refuted",
                            "system": "http://terminology.hl7.org/CodeSystem/condition-ver-status"
                        },
                        {
                            "code": "410594000",
                            "display": "Definitely NOT present (qualifier value)",
                            "system": "http://snomed.info/sct"
                        }
                    ]
                },
                "resourceType": "Condition"
            }
        },
        {
            "request": {
                "method": "POST",
                "url": "Procedure"
            },
            "resource": {
                "id": "5e979c06-320d-4dcf-b257-67226dc6e2de",
                "meta": {
                    "profile": [
                        "https://www.netzwerk-universitaetsmedizin.de/fhir/StructureDefinition/respiratory-therapies"
                    ]
                },
                "category": {
                    "coding": [
                        {
                            "code": "277132007",
                            "display": "Therapeutic procedure",
                            "system": "http://snomed.info/sct"
                        }
                    ]
                },
                "code": {
                    "coding": [
                        {
                            "code": "53950000",
                            "display": "Respiratory therapy",
                            "system": "http://snomed.info/sct"
                        }
                    ]
                },
                "performedDateTime": "2020-11-17T10:51:11+01:00",
                "status": "in-progress",
                "subject": {
                    "reference": "Patient/6c805ad2-1802-4b4c-ba1a-2da947f08551"
                },
                "resourceType": "Procedure"
            }
        },
        {
            "request": {
                "method": "POST",
                "url": "Condition"
            },
            "resource": {
                "id": "52e89fe7-9b6e-4e52-b83e-99ec79fb97d2",
                "meta": {
                    "profile": [
                        "https://www.netzwerk-universitaetsmedizin.de/fhir/StructureDefinition/chronic-kidney-diseases"
                    ]
                },
                "extension": [
                    {
                        "url": "https://www.netzwerk-universitaetsmedizin.de/fhir/StructureDefinition/uncertainty-of-presence",
                        "valueCodeableConcept": {
                            "coding": [
                                {
                                    "code": "261665006",
                                    "display": "Unknown (qualifier value)",
                                    "system": "http://snomed.info/sct"
                                }
                            ],
                            "text": "Presence of condition is unknown."
                        }
                    }
                ],
                "category": [
                    {
                        "coding": [
                            {
                                "code": "394589003",
                                "display": "Nephrology (qualifier value)",
                                "system": "http://snomed.info/sct"
                            }
                        ]
                    }
                ],
                "code": {
                    "coding": [
                        {
                            "code": "709044004",
                            "display": "Chronic kidney disease (disorder)",
                            "system": "http://snomed.info/sct"
                        }
                    ]
                },
                "recordedDate": "2020-11-17T10:51:11+01:00",
                "subject": {
                    "reference": "Patient/6c805ad2-1802-4b4c-ba1a-2da947f08551"
                },
                "resourceType": "Condition"
            }
        },
        {
            "request": {
                "method": "PUT",
                "url": "Observation/56914830-dedc-4284-9b27-cd4716f8254d"
            },
            "resource": {
                "id": "56914830-dedc-4284-9b27-cd4716f8254d",
                "meta": {
                    "profile": [
                        "https://www.netzwerk-universitaetsmedizin.de/fhir/StructureDefinition/history-of-travel"
                    ]
                },
                "category": [
                    {
                        "coding": [
                            {
                                "code": "social-history",
                                "system": "http://terminology.hl7.org/CodeSystem/observation-category"
                            }
                        ]
                    }
                ],
                "code": {
                    "coding": [
                        {
                            "code": "8691-8",
                            "display": "History of Travel",
                            "system": "http://loinc.org"
                        },
                        {
                            "code": "443846001",
                            "display": "Detail of history of travel (observable entity)",
                            "system": "http://snomed.info/sct"
                        }
                    ],
                    "text": "History of travel"
                },
                "component": [
                    {
                        "code": {
                            "coding": [
                                {
                                    "code": "82752-7",
                                    "display": "Date travel started",
                                    "system": "http://loinc.org"
                                }
                            ],
                            "text": "Travel start date"
                        },
                        "valueDateTime": "2020-10-22"
                    },
                    {
                        "code": {
                            "coding": [
                                {
                                    "code": "94651-7",
                                    "display": "Country of travel",
                                    "system": "http://loinc.org"
                                }
                            ],
                            "text": "Country of travel"
                        },
                        "valueCodeableConcept": {
                            "coding": [
                                {
                                    "code": "DE",
                                    "display": "Germany",
                                    "system": "urn:iso:std:iso:3166"
                                }
                            ],
                            "text": "Germany"
                        }
                    },
                    {
                        "code": {
                            "coding": [
                                {
                                    "code": "82754-3",
                                    "display": "State of travel",
                                    "system": "http://loinc.org"
                                }
                            ],
                            "text": "State of travel"
                        },
                        "valueCodeableConcept": {
                            "coding": [
                                {
                                    "code": "DE-SL",
                                    "display": "Saarland",
                                    "system": "urn:iso:std:iso:3166-2:de"
                                }
                            ],
                            "text": "Saarland"
                        }
                    },
                    {
                        "code": {
                            "coding": [
                                {
                                    "code": "94653-3",
                                    "display": "City of travel",
                                    "system": "http://loinc.org"
                                }
                            ],
                            "text": "City of travel"
                        },
                        "valueString": "Saarbr\u00fccken"
                    },
                    {
                        "code": {
                            "coding": [
                                {
                                    "code": "91560-3",
                                    "display": "Date of departure from travel destination",
                                    "system": "http://loinc.org"
                                }
                            ],
                            "text": "Travel end date"
                        },
                        "valueDateTime": "2020-11-10"
                    }
                ],
                "effectiveDateTime": "2020-11-17T10:51:11+01:00",
                "identifier": [
                    {
                        "assigner": {
                            "reference": "Organization/Charit\u00e9"
                        },
                        "system": "https://www.charite.de/fhir/CodeSystem/observation-identifiers",
                        "type": {
                            "coding": [
                                {
                                    "code": "OBI",
                                    "system": "http://terminology.hl7.org/CodeSystem/v2-0203"
                                }
                            ]
                        },
                        "value": "8691-8_HistoryOfTravel"
                    }
                ],
                "status": "final",
                "subject": {
                    "reference": "Patient/6c805ad2-1802-4b4c-ba1a-2da947f08551"
                },
                "valueCodeableConcept": {
                    "coding": [
                        {
                            "code": "373066001",
                            "display": "Yes (qualifier value)",
                            "system": "http://snomed.info/sct"
                        }
                    ]
                },
                "resourceType": "Observation"
            }
        },
        {
            "request": {
                "method": "POST",
                "url": "Condition"
            },
            "resource": {
                "id": "de3ffa27-c1e5-4759-a80d-5e8774b4a234",
                "meta": {
                    "profile": [
                        "https://www.netzwerk-universitaetsmedizin.de/fhir/StructureDefinition/gastrointestinal-ulcers"
                    ]
                },
                "category": [
                    {
                        "coding": [
                            {
                                "code": "394584008",
                                "display": "Gastroenterology",
                                "system": "http://snomed.info/sct"
                            }
                        ]
                    }
                ],
                "clinicalStatus": {
                    "coding": [
                        {
                            "code": "active",
                            "display": "Active",
                            "system": "http://terminology.hl7.org/CodeSystem/condition-clinical"
                        }
                    ]
                },
                "code": {
                    "coding": [
                        {
                            "code": "40845000",
                            "display": "Gastrointestinal ulcer",
                            "system": "http://snomed.info/sct"
                        }
                    ]
                },
                "recordedDate": "2020-11-17T10:51:11+01:00",
                "subject": {
                    "reference": "Patient/6c805ad2-1802-4b4c-ba1a-2da947f08551"
                },
                "verificationStatus": {
                    "coding": [
                        {
                            "code": "confirmed",
                            "display": "Confirmed",
                            "system": "http://terminology.hl7.org/CodeSystem/condition-ver-status"
                        },
                        {
                            "code": "410605003",
                            "display": "Confirmed present (qualifier value)",
                            "system": "http://snomed.info/sct"
                        }
                    ]
                },
                "resourceType": "Condition"
            }
        },
        {
            "request": {
                "method": "POST",
                "url": "Immunization"
            },
            "resource": {
                "id": "d42c2a31-138b-4358-932c-e6b7b9d1b0f5",
                "meta": {
                    "profile": [
                        "https://www.netzwerk-universitaetsmedizin.de/fhir/StructureDefinition/immunization"
                    ]
                },
                "occurrenceDateTime": "2020-10-06",
                "patient": {
                    "reference": "Patient/6c805ad2-1802-4b4c-ba1a-2da947f08551"
                },
                "protocolApplied": [
                    {
                        "doseNumberString": "unknown",
                        "targetDisease": [
                            {
                                "coding": [
                                    {
                                        "code": "16814004",
                                        "display": "Pneumococcal infectious disease",
                                        "system": "http://snomed.info/sct"
                                    }
                                ]
                            }
                        ]
                    }
                ],
                "status": "completed",
                "vaccineCode": {
                    "coding": [
                        {
                            "code": "J07AL",
                            "display": "Pneumokokken-Impfstoffe",
                            "system": "http://fhir.de/CodeSystem/dimdi/atc"
                        },
                        {
                            "code": "333598008",
                            "display": "Pneumococcal vaccine",
                            "system": "http://snomed.info/sct"
                        }
                    ]
                },
                "resourceType": "Immunization"
            }
        },
        {
            "request": {
                "method": "POST",
                "url": "Consent"
            },
            "resource": {
                "id": "562f1741-181f-44b0-9106-9d32167ff7f9",
                "meta": {
                    "profile": [
                        "https://www.netzwerk-universitaetsmedizin.de/fhir/StructureDefinition/do-not-resuscitate-order"
                    ]
                },
                "category": [
                    {
                        "coding": [
                            {
                                "code": "dnr",
                                "display": "Do Not Resuscitate",
                                "system": "http://terminology.hl7.org/CodeSystem/consentcategorycodes"
                            }
                        ]
                    }
                ],
                "patient": {
                    "reference": "Patient/6c805ad2-1802-4b4c-ba1a-2da947f08551"
                },
                "policy": [
                    {
                        "uri": "https://www.aerzteblatt.de/archiv/65440/DNR-Anordnungen-Das-fehlende-Bindeglied"
                    }
                ],
                "provision": {
                    "code": [
                        {
                            "coding": [
                                {
                                    "code": "261665006",
                                    "display": "Unknown (qualifier value)",
                                    "system": "http://snomed.info/sct"
                                }
                            ]
                        }
                    ]
                },
                "scope": {
                    "coding": [
                        {
                            "code": "adr",
                            "display": "Advanced Care Directive",
                            "system": "http://terminology.hl7.org/CodeSystem/consentscope"
                        }
                    ]
                },
                "status": "active",
                "resourceType": "Consent"
            }
        },
        {
            "request": {
                "method": "PUT",
                "url": "DiagnosticReport/d6bce76e-c08c-4671-8cd0-f440bb097583"
            },
            "resource": {
                "id": "d6bce76e-c08c-4671-8cd0-f440bb097583",
                "meta": {
                    "profile": [
                        "https://www.netzwerk-universitaetsmedizin.de/fhir/StructureDefinition/diagnostic-report-radiology"
                    ]
                },
                "category": [
                    {
                        "coding": [
                            {
                                "code": "18726-0",
                                "display": "Radiology studies (set)",
                                "system": "http://loinc.org"
                            },
                            {
                                "code": "RAD",
                                "display": "Radiology",
                                "system": "http://terminology.hl7.org/CodeSystem/v2-0074"
                            }
                        ]
                    }
                ],
                "code": {
                    "coding": [
                        {
                            "code": "18748-4",
                            "display": "Diagnostic imaging study",
                            "system": "http://loinc.org"
                        }
                    ]
                },
                "conclusion": "COVID-19-typischer Befund",
                "conclusionCode": [
                    {
                        "coding": [
                            {
                                "code": "118247008:{363713009=263654008,42752001=840539006}",
                                "display": "|Radiologic finding (finding)|:{|Has interpretation (attribute)|=|Abnormal (qualifier value)|,|Due to (attribute)|=|Disease caused by severe acute respiratory syndrome coronavirus 2 (disorder)|}",
                                "system": "http://snomed.info/sct"
                            }
                        ]
                    }
                ],
                "effectiveDateTime": "2020-11-17T10:51:11+01:00",
                "status": "final",
                "subject": {
                    "reference": "Patient/6c805ad2-1802-4b4c-ba1a-2da947f08551"
                },
                "resourceType": "DiagnosticReport"
            }
        },
        {
            "request": {
                "method": "POST",
                "url": "Procedure"
            },
            "resource": {
                "id": "e5af508a-9497-4bf6-8fe5-7ee5ef97a1f4",
                "meta": {
                    "profile": [
                        "https://www.netzwerk-universitaetsmedizin.de/fhir/StructureDefinition/radiology-procedures"
                    ]
                },
                "bodySite": [
                    {
                        "coding": [
                            {
                                "code": "39607008",
                                "display": "Lung structure (body structure)",
                                "system": "http://snomed.info/sct"
                            }
                        ]
                    }
                ],
                "category": {
                    "coding": [
                        {
                            "code": "103693007",
                            "display": "Diagnostic procedure (procedure)",
                            "system": "http://snomed.info/sct"
                        }
                    ]
                },
                "code": {
                    "coding": [
                        {
                            "code": "168537006",
                            "display": "Plain radiography",
                            "system": "http://snomed.info/sct"
                        },
                        {
                            "code": "RG",
                            "display": "Radiographic imaging",
                            "system": "http://dicom.nema.org/resources/ontology/DCM"
                        }
                    ],
                    "text": "Chest x-ray"
                },
                "performedDateTime": "2020-11-17T10:51:11+01:00",
                "report": [
                    {
                        "reference": "DiagnosticReport/d6bce76e-c08c-4671-8cd0-f440bb097583"
                    }
                ],
                "status": "completed",
                "subject": {
                    "reference": "Patient/6c805ad2-1802-4b4c-ba1a-2da947f08551"
                },
                "resourceType": "Procedure"
            }
        },
        {
            "request": {
                "method": "POST",
                "url": "Procedure"
            },
            "resource": {
                "id": "63d649c8-49e7-4dd3-b7df-32ba7dd77317",
                "meta": {
                    "profile": [
                        "https://www.netzwerk-universitaetsmedizin.de/fhir/StructureDefinition/radiology-procedures"
                    ]
                },
                "bodySite": [
                    {
                        "coding": [
                            {
                                "code": "39607008",
                                "display": "Lung structure (body structure)",
                                "system": "http://snomed.info/sct"
                            }
                        ]
                    }
                ],
                "category": {
                    "coding": [
                        {
                            "code": "103693007",
                            "display": "Diagnostic procedure (procedure)",
                            "system": "http://snomed.info/sct"
                        }
                    ]
                },
                "code": {
                    "coding": [
                        {
                            "code": "77477000",
                            "display": "Computerized axial tomography (procedure)",
                            "system": "http://snomed.info/sct"
                        },
                        {
                            "code": "CT",
                            "display": "Computed Tomography",
                            "system": "http://dicom.nema.org/resources/ontology/DCM"
                        }
                    ],
                    "text": "Computed Tomography"
                },
                "performedDateTime": "2020-11-17T10:51:11+01:00",
                "report": [
                    {
                        "reference": "DiagnosticReport/d6bce76e-c08c-4671-8cd0-f440bb097583"
                    }
                ],
                "status": "completed",
                "subject": {
                    "reference": "Patient/6c805ad2-1802-4b4c-ba1a-2da947f08551"
                },
                "resourceType": "Procedure"
            }
        },
        {
            "request": {
                "method": "POST",
                "url": "Procedure"
            },
            "resource": {
                "id": "be3801b4-99b8-4503-b3bf-611b12be3cfc",
                "meta": {
                    "profile": [
                        "https://www.netzwerk-universitaetsmedizin.de/fhir/StructureDefinition/radiology-procedures"
                    ]
                },
                "bodySite": [
                    {
                        "coding": [
                            {
                                "code": "39607008",
                                "display": "Lung structure (body structure)",
                                "system": "http://snomed.info/sct"
                            }
                        ]
                    }
                ],
                "category": {
                    "coding": [
                        {
                            "code": "103693007",
                            "display": "Diagnostic procedure (procedure)",
                            "system": "http://snomed.info/sct"
                        }
                    ]
                },
                "code": {
                    "coding": [
                        {
                            "code": "16310003",
                            "display": "Diagnostic ultrasonography (procedure)",
                            "system": "http://snomed.info/sct"
                        },
                        {
                            "code": "US",
                            "display": "Ultrasound",
                            "system": "http://dicom.nema.org/resources/ontology/DCM"
                        }
                    ],
                    "text": "Ultrasound"
                },
                "performedDateTime": "2020-11-17T10:51:11+01:00",
                "report": [
                    {
                        "reference": "DiagnosticReport/d6bce76e-c08c-4671-8cd0-f440bb097583"
                    }
                ],
                "status": "completed",
                "subject": {
                    "reference": "Patient/6c805ad2-1802-4b4c-ba1a-2da947f08551"
                },
                "resourceType": "Procedure"
            }
        },
        {
            "request": {
                "method": "PUT",
                "url": "Observation/6cee0b4f-c231-47b1-8822-2b053e3e476c"
            },
            "resource": {
                "id": "6cee0b4f-c231-47b1-8822-2b053e3e476c",
                "meta": {
                    "profile": [
                        "https://www.netzwerk-universitaetsmedizin.de/fhir/StructureDefinition/known-exposure"
                    ]
                },
                "category": [
                    {
                        "coding": [
                            {
                                "code": "social-history",
                                "system": "http://terminology.hl7.org/CodeSystem/observation-category"
                            }
                        ]
                    }
                ],
                "code": {
                    "coding": [
                        {
                            "code": "88636-6",
                            "display": "Known exposure [Identifier]",
                            "system": "http://loinc.org"
                        }
                    ],
                    "text": "Known exposure"
                },
                "effectiveDateTime": "2020-11-14",
                "identifier": [
                    {
                        "assigner": {
                            "reference": "Organization/Charit\u00e9"
                        },
                        "system": "https://www.charite.de/fhir/CodeSystem/observation-identifiers",
                        "type": {
                            "coding": [
                                {
                                    "code": "OBI",
                                    "system": "http://terminology.hl7.org/CodeSystem/v2-0203"
                                }
                            ]
                        },
                        "value": "88636-6_KnownExposure"
                    }
                ],
                "status": "final",
                "subject": {
                    "reference": "Patient/6c805ad2-1802-4b4c-ba1a-2da947f08551"
                },
                "valueCodeableConcept": {
                    "coding": [
                        {
                            "code": "840546002",
                            "display": "Exposure to severe acute respiratory syndrome coronavirus 2 (event)",
                            "system": "http://snomed.info/sct"
                        }
                    ]
                },
                "resourceType": "Observation"
            }
        },
        {
            "request": {
                "method": "POST",
                "url": "Condition"
            },
            "resource": {
                "id": "e724ed75-f1a8-49ce-857f-fcbfb9b062a2",
                "meta": {
                    "profile": [
                        "https://www.netzwerk-universitaetsmedizin.de/fhir/StructureDefinition/complications-covid-19"
                    ]
                },
                "category": [
                    {
                        "coding": [
                            {
                                "code": "116223007",
                                "display": "Complication (disorder)",
                                "system": "http://snomed.info/sct"
                            }
                        ]
                    }
                ],
                "code": {
                    "coding": [
                        {
                            "code": "128601007",
                            "display": "Infectious disease of lung (disorder)",
                            "system": "http://snomed.info/sct"
                        }
                    ]
                },
                "recordedDate": "2020-11-17T10:51:11+01:00",
                "subject": {
                    "reference": "Patient/6c805ad2-1802-4b4c-ba1a-2da947f08551"
                },
                "verificationStatus": {
                    "coding": [
                        {
                            "code": "refuted",
                            "display": "Refuted",
                            "system": "http://terminology.hl7.org/CodeSystem/condition-ver-status"
                        },
                        {
                            "code": "410594000",
                            "display": "Definitely NOT present (qualifier value)",
                            "system": "http://snomed.info/sct"
                        }
                    ]
                },
                "resourceType": "Condition"
            }
        },
        {
            "request": {
                "method": "POST",
                "url": "Condition"
            },
            "resource": {
                "id": "356567bf-8347-48c8-93b2-31824dc7e807",
                "meta": {
                    "profile": [
                        "https://www.netzwerk-universitaetsmedizin.de/fhir/StructureDefinition/complications-covid-19"
                    ]
                },
                "extension": [
                    {
                        "url": "https://www.netzwerk-universitaetsmedizin.de/fhir/StructureDefinition/uncertainty-of-presence",
                        "valueCodeableConcept": {
                            "coding": [
                                {
                                    "code": "261665006",
                                    "display": "Unknown (qualifier value)",
                                    "system": "http://snomed.info/sct"
                                }
                            ],
                            "text": "Presence of condition is unknown."
                        }
                    }
                ],
                "category": [
                    {
                        "coding": [
                            {
                                "code": "116223007",
                                "display": "Complication (disorder)",
                                "system": "http://snomed.info/sct"
                            }
                        ]
                    }
                ],
                "code": {
                    "coding": [
                        {
                            "code": "434156008",
                            "display": "Infectious agent in bloodstream (finding)",
                            "system": "http://snomed.info/sct"
                        }
                    ]
                },
                "recordedDate": "2020-11-17T10:51:11+01:00",
                "subject": {
                    "reference": "Patient/6c805ad2-1802-4b4c-ba1a-2da947f08551"
                },
                "resourceType": "Condition"
            }
        },
        {
            "request": {
                "method": "POST",
                "url": "Condition"
            },
            "resource": {
                "id": "46a7af4f-d4b3-4fa3-969f-f6b217bca8ad",
                "meta": {
                    "profile": [
                        "https://www.netzwerk-universitaetsmedizin.de/fhir/StructureDefinition/complications-covid-19"
                    ]
                },
                "category": [
                    {
                        "coding": [
                            {
                                "code": "116223007",
                                "display": "Complication (disorder)",
                                "system": "http://snomed.info/sct"
                            }
                        ]
                    }
                ],
                "clinicalStatus": {
                    "coding": [
                        {
                            "code": "active",
                            "display": "Active",
                            "system": "http://terminology.hl7.org/CodeSystem/condition-clinical"
                        }
                    ]
                },
                "code": {
                    "coding": [
                        {
                            "code": "111293003",
                            "display": "Venous thrombosis (disorder)",
                            "system": "http://snomed.info/sct"
                        }
                    ]
                },
                "recordedDate": "2020-11-17T10:51:11+01:00",
                "subject": {
                    "reference": "Patient/6c805ad2-1802-4b4c-ba1a-2da947f08551"
                },
                "verificationStatus": {
                    "coding": [
                        {
                            "code": "confirmed",
                            "display": "Confirmed",
                            "system": "http://terminology.hl7.org/CodeSystem/condition-ver-status"
                        },
                        {
                            "code": "410605003",
                            "display": "Confirmed present (qualifier value)",
                            "system": "http://snomed.info/sct"
                        }
                    ]
                },
                "resourceType": "Condition"
            }
        },
        {
            "request": {
                "method": "POST",
                "url": "Condition"
            },
            "resource": {
                "id": "d671eb14-b260-44b2-94ee-a76a1f6d55c8",
                "meta": {
                    "profile": [
                        "https://www.netzwerk-universitaetsmedizin.de/fhir/StructureDefinition/complications-covid-19"
                    ]
                },
                "category": [
                    {
                        "coding": [
                            {
                                "code": "116223007",
                                "display": "Complication (disorder)",
                                "system": "http://snomed.info/sct"
                            }
                        ]
                    }
                ],
                "code": {
                    "coding": [
                        {
                            "code": "59282003",
                            "display": "Pulmonary embolism (disorder)",
                            "system": "http://snomed.info/sct"
                        }
                    ]
                },
                "recordedDate": "2020-11-17T10:51:11+01:00",
                "subject": {
                    "reference": "Patient/6c805ad2-1802-4b4c-ba1a-2da947f08551"
                },
                "verificationStatus": {
                    "coding": [
                        {
                            "code": "refuted",
                            "display": "Refuted",
                            "system": "http://terminology.hl7.org/CodeSystem/condition-ver-status"
                        },
                        {
                            "code": "410594000",
                            "display": "Definitely NOT present (qualifier value)",
                            "system": "http://snomed.info/sct"
                        }
                    ]
                },
                "resourceType": "Condition"
            }
        },
        {
            "request": {
                "method": "POST",
                "url": "Condition"
            },
            "resource": {
                "id": "fe4130e8-a747-4b5b-9138-d013f2a974c4",
                "meta": {
                    "profile": [
                        "https://www.netzwerk-universitaetsmedizin.de/fhir/StructureDefinition/complications-covid-19"
                    ]
                },
                "category": [
                    {
                        "coding": [
                            {
                                "code": "116223007",
                                "display": "Complication (disorder)",
                                "system": "http://snomed.info/sct"
                            }
                        ]
                    }
                ],
                "code": {
                    "coding": [
                        {
                            "code": "230690007",
                            "display": "Cerebrovascular accident (disorder)",
                            "system": "http://snomed.info/sct"
                        }
                    ]
                },
                "recordedDate": "2020-11-17T10:51:11+01:00",
                "subject": {
                    "reference": "Patient/6c805ad2-1802-4b4c-ba1a-2da947f08551"
                },
                "verificationStatus": {
                    "coding": [
                        {
                            "code": "refuted",
                            "display": "Refuted",
                            "system": "http://terminology.hl7.org/CodeSystem/condition-ver-status"
                        },
                        {
                            "code": "410594000",
                            "display": "Definitely NOT present (qualifier value)",
                            "system": "http://snomed.info/sct"
                        }
                    ]
                },
                "resourceType": "Condition"
            }
        },
        {
            "request": {
                "method": "POST",
                "url": "Condition"
            },
            "resource": {
                "id": "fe13784c-31ad-4b3b-95c7-2497c1b04233",
                "meta": {
                    "profile": [
                        "https://www.netzwerk-universitaetsmedizin.de/fhir/StructureDefinition/complications-covid-19"
                    ]
                },
                "extension": [
                    {
                        "url": "https://www.netzwerk-universitaetsmedizin.de/fhir/StructureDefinition/uncertainty-of-presence",
                        "valueCodeableConcept": {
                            "coding": [
                                {
                                    "code": "261665006",
                                    "display": "Unknown (qualifier value)",
                                    "system": "http://snomed.info/sct"
                                }
                            ],
                            "text": "Presence of condition is unknown."
                        }
                    }
                ],
                "category": [
                    {
                        "coding": [
                            {
                                "code": "116223007",
                                "display": "Complication (disorder)",
                                "system": "http://snomed.info/sct"
                            }
                        ]
                    }
                ],
                "code": {
                    "coding": [
                        {
                            "code": "22298006",
                            "display": "Myocardial infarction (disorder)",
                            "system": "http://snomed.info/sct"
                        }
                    ]
                },
                "recordedDate": "2020-11-17T10:51:11+01:00",
                "subject": {
                    "reference": "Patient/6c805ad2-1802-4b4c-ba1a-2da947f08551"
                },
                "resourceType": "Condition"
            }
        },
        {
            "request": {
                "method": "POST",
                "url": "Condition"
            },
            "resource": {
                "id": "231720e5-3afb-41e8-9a6e-f3471fa30ce8",
                "meta": {
                    "profile": [
                        "https://www.netzwerk-universitaetsmedizin.de/fhir/StructureDefinition/complications-covid-19"
                    ]
                },
                "category": [
                    {
                        "coding": [
                            {
                                "code": "116223007",
                                "display": "Complication (disorder)",
                                "system": "http://snomed.info/sct"
                            }
                        ]
                    }
                ],
                "clinicalStatus": {
                    "coding": [
                        {
                            "code": "active",
                            "display": "Active",
                            "system": "http://terminology.hl7.org/CodeSystem/condition-clinical"
                        }
                    ]
                },
                "code": {
                    "coding": [
                        {
                            "code": "129561000119108",
                            "display": "Pre-renal acute kidney injury (disorder)",
                            "system": "http://snomed.info/sct"
                        }
                    ]
                },
                "recordedDate": "2020-11-17T10:51:11+01:00",
                "subject": {
                    "reference": "Patient/6c805ad2-1802-4b4c-ba1a-2da947f08551"
                },
                "verificationStatus": {
                    "coding": [
                        {
                            "code": "confirmed",
                            "display": "Confirmed",
                            "system": "http://terminology.hl7.org/CodeSystem/condition-ver-status"
                        },
                        {
                            "code": "410605003",
                            "display": "Confirmed present (qualifier value)",
                            "system": "http://snomed.info/sct"
                        }
                    ]
                },
                "resourceType": "Condition"
            }
        },
        {
            "request": {
                "method": "POST",
                "url": "Condition"
            },
            "resource": {
                "id": "706ba329-3f0f-4cca-bdda-d53bef465c38",
                "meta": {
                    "profile": [
                        "https://www.netzwerk-universitaetsmedizin.de/fhir/StructureDefinition/diagnosis-covid-19"
                    ]
                },
                "category": [
                    {
                        "coding": [
                            {
                                "code": "394807007",
                                "display": "Infectious diseases (specialty) (qualifier value)",
                                "system": "http://snomed.info/sct"
                            }
                        ]
                    }
                ],
                "clinicalStatus": {
                    "coding": [
                        {
                            "code": "active",
                            "display": "Active",
                            "system": "http://terminology.hl7.org/CodeSystem/condition-clinical"
                        }
                    ]
                },
                "code": {
                    "coding": [
                        {
                            "code": "840539006",
                            "display": "Disease caused by Severe acute respiratory syndrome coronavirus 2 (disorder)",
                            "system": "http://snomed.info/sct"
                        }
                    ]
                },
                "recordedDate": "2020-11-17T10:51:11+01:00",
                "stage": [
                    {
                        "summary": {
                            "coding": [
                                {
                                    "code": "371924009",
                                    "display": "Moderate to severe (qualifier value)",
                                    "system": "http://snomed.info/sct"
                                }
                            ],
                            "text": "Complicated phase"
                        },
                        "type": {
                            "coding": [
                                {
                                    "code": "88859-4",
                                    "display": "Disease stage score for risk calculation",
                                    "system": "http://loinc.org"
                                }
                            ]
                        }
                    }
                ],
                "subject": {
                    "reference": "Patient/6c805ad2-1802-4b4c-ba1a-2da947f08551"
                },
                "verificationStatus": {
                    "coding": [
                        {
                            "code": "confirmed",
                            "display": "Confirmed",
                            "system": "http://terminology.hl7.org/CodeSystem/condition-ver-status"
                        },
                        {
                            "code": "410605003",
                            "display": "Confirmed present (qualifier value)",
                            "system": "http://snomed.info/sct"
                        }
                    ]
                },
                "resourceType": "Condition"
            }
        },
        {
            "request": {
                "method": "PUT",
                "url": "Observation/413c70c1-a59c-4c28-9609-834093679eeb"
            },
            "resource": {
                "id": "413c70c1-a59c-4c28-9609-834093679eeb",
                "meta": {
                    "profile": [
                        "https://www.medizininformatik-initiative.de/fhir/core/modul-labor/StructureDefinition/ObservationLab"
                    ]
                },
                "category": [
                    {
                        "coding": [
                            {
                                "code": "26436-6",
                                "system": "http://loinc.org"
                            },
                            {
                                "code": "laboratory",
                                "system": "http://terminology.hl7.org/CodeSystem/observation-category"
                            }
                        ]
                    }
                ],
                "code": {
                    "coding": [
                        {
                            "code": "1988-5",
                            "display": "C reactive protein [Mass/volume] in Serum or Plasma",
                            "system": "http://loinc.org"
                        }
                    ],
                    "text": "CRP"
                },
                "effectiveDateTime": "2020-11-17T10:51:11+01:00",
                "identifier": [
                    {
                        "assigner": {
                            "reference": "Organization/Charit\u00e9"
                        },
                        "system": "https://www.charite.de/fhir/CodeSystem/lab-identifiers",
                        "type": {
                            "coding": [
                                {
                                    "code": "OBI",
                                    "system": "http://terminology.hl7.org/CodeSystem/v2-0203"
                                }
                            ]
                        },
                        "value": "1988-5_c-reactive-protein-mass-per-volume-in-serum-or-plasma"
                    }
                ],
                "status": "final",
                "subject": {
                    "reference": "Patient/6c805ad2-1802-4b4c-ba1a-2da947f08551"
                },
                "valueQuantity": {
                    "code": "mg/L",
                    "system": "http://unitsofmeasure.org",
                    "unit": "mg/L",
                    "value": 4.6
                },
                "resourceType": "Observation"
            }
        },
        {
            "request": {
                "method": "PUT",
                "url": "Observation/27f23522-f34b-4234-8358-0b3f2324a5a6"
            },
            "resource": {
                "id": "27f23522-f34b-4234-8358-0b3f2324a5a6",
                "meta": {
                    "profile": [
                        "https://www.medizininformatik-initiative.de/fhir/core/modul-labor/StructureDefinition/ObservationLab"
                    ]
                },
                "category": [
                    {
                        "coding": [
                            {
                                "code": "26436-6",
                                "system": "http://loinc.org"
                            },
                            {
                                "code": "laboratory",
                                "system": "http://terminology.hl7.org/CodeSystem/observation-category"
                            }
                        ]
                    }
                ],
                "code": {
                    "coding": [
                        {
                            "code": "2276-4",
                            "display": "Ferritin [Mass/volume] in Serum or Plasma",
                            "system": "http://loinc.org"
                        }
                    ],
                    "text": "Ferritin"
                },
                "effectiveDateTime": "2020-11-17T10:51:11+01:00",
                "identifier": [
                    {
                        "assigner": {
                            "reference": "Organization/Charit\u00e9"
                        },
                        "system": "https://www.charite.de/fhir/CodeSystem/lab-identifiers",
                        "type": {
                            "coding": [
                                {
                                    "code": "OBI",
                                    "system": "http://terminology.hl7.org/CodeSystem/v2-0203"
                                }
                            ]
                        },
                        "value": "2276-4_ferritin-mass-per-volume-in-serum-or-plasma"
                    }
                ],
                "status": "final",
                "subject": {
                    "reference": "Patient/6c805ad2-1802-4b4c-ba1a-2da947f08551"
                },
                "valueQuantity": {
                    "code": "ng/mL",
                    "system": "http://unitsofmeasure.org",
                    "unit": "ng/mL",
                    "value": 156.1
                },
                "resourceType": "Observation"
            }
        },
        {
            "request": {
                "method": "PUT",
                "url": "Observation/d839969e-5a7c-450d-a2a8-b5686cbead45"
            },
            "resource": {
                "id": "d839969e-5a7c-450d-a2a8-b5686cbead45",
                "meta": {
                    "profile": [
                        "https://www.medizininformatik-initiative.de/fhir/core/modul-labor/StructureDefinition/ObservationLab"
                    ]
                },
                "category": [
                    {
                        "coding": [
                            {
                                "code": "26436-6",
                                "system": "http://loinc.org"
                            },
                            {
                                "code": "laboratory",
                                "system": "http://terminology.hl7.org/CodeSystem/observation-category"
                            }
                        ]
                    }
                ],
                "code": {
                    "coding": [
                        {
                            "code": "1971-1",
                            "display": "Bilirubin.indirect [Mass/volume] in Serum or Plasma",
                            "system": "http://loinc.org"
                        }
                    ],
                    "text": "Bilirubin"
                },
                "effectiveDateTime": "2020-11-17T10:51:11+01:00",
                "identifier": [
                    {
                        "assigner": {
                            "reference": "Organization/Charit\u00e9"
                        },
                        "system": "https://www.charite.de/fhir/CodeSystem/lab-identifiers",
                        "type": {
                            "coding": [
                                {
                                    "code": "OBI",
                                    "system": "http://terminology.hl7.org/CodeSystem/v2-0203"
                                }
                            ]
                        },
                        "value": "1971-1_bilirubin.indirect-mass-per-volume-in-serum-or-plasma"
                    }
                ],
                "status": "final",
                "subject": {
                    "reference": "Patient/6c805ad2-1802-4b4c-ba1a-2da947f08551"
                },
                "valueQuantity": {
                    "code": "mg/dL",
                    "system": "http://unitsofmeasure.org",
                    "unit": "mg/dL",
                    "value": 0.44
                },
                "resourceType": "Observation"
            }
        },
        {
            "request": {
                "method": "PUT",
                "url": "Observation/410901a5-b460-4f02-83ba-371778228795"
            },
            "resource": {
                "id": "410901a5-b460-4f02-83ba-371778228795",
                "meta": {
                    "profile": [
                        "https://www.medizininformatik-initiative.de/fhir/core/modul-labor/StructureDefinition/ObservationLab"
                    ]
                },
                "category": [
                    {
                        "coding": [
                            {
                                "code": "26436-6",
                                "system": "http://loinc.org"
                            },
                            {
                                "code": "laboratory",
                                "system": "http://terminology.hl7.org/CodeSystem/observation-category"
                            }
                        ]
                    }
                ],
                "code": {
                    "coding": [
                        {
                            "code": "48066-5",
                            "display": "Fibrin D-dimer DDU [Mass/volume] in Platelet poor plasma",
                            "system": "http://loinc.org"
                        }
                    ],
                    "text": "D-dimer"
                },
                "effectiveDateTime": "2020-11-17T10:51:11+01:00",
                "identifier": [
                    {
                        "assigner": {
                            "reference": "Organization/Charit\u00e9"
                        },
                        "system": "https://www.charite.de/fhir/CodeSystem/lab-identifiers",
                        "type": {
                            "coding": [
                                {
                                    "code": "OBI",
                                    "system": "http://terminology.hl7.org/CodeSystem/v2-0203"
                                }
                            ]
                        },
                        "value": "48066-5_fibrin-d-dimer-ddu-mass-per-volume-in-platelet-poor-plasma"
                    }
                ],
                "status": "final",
                "subject": {
                    "reference": "Patient/6c805ad2-1802-4b4c-ba1a-2da947f08551"
                },
                "valueQuantity": {
                    "code": "ug/L{DDU}",
                    "system": "http://unitsofmeasure.org",
                    "unit": "ug/L{DDU}",
                    "value": 248
                },
                "resourceType": "Observation"
            }
        },
        {
            "request": {
                "method": "PUT",
                "url": "Observation/160f35df-425c-4cf6-a139-33e37d00c1b6"
            },
            "resource": {
                "id": "160f35df-425c-4cf6-a139-33e37d00c1b6",
                "meta": {
                    "profile": [
                        "https://www.medizininformatik-initiative.de/fhir/core/modul-labor/StructureDefinition/ObservationLab"
                    ]
                },
                "category": [
                    {
                        "coding": [
                            {
                                "code": "26436-6",
                                "system": "http://loinc.org"
                            },
                            {
                                "code": "laboratory",
                                "system": "http://terminology.hl7.org/CodeSystem/observation-category"
                            }
                        ]
                    }
                ],
                "code": {
                    "coding": [
                        {
                            "code": "2324-2",
                            "display": "Gamma glutamyl transferase [Enzymatic activity/volume] in Serum or Plasma",
                            "system": "http://loinc.org"
                        }
                    ],
                    "text": "Gamma glutamyl transferase"
                },
                "effectiveDateTime": "2020-11-17T10:51:11+01:00",
                "identifier": [
                    {
                        "assigner": {
                            "reference": "Organization/Charit\u00e9"
                        },
                        "system": "https://www.charite.de/fhir/CodeSystem/lab-identifiers",
                        "type": {
                            "coding": [
                                {
                                    "code": "OBI",
                                    "system": "http://terminology.hl7.org/CodeSystem/v2-0203"
                                }
                            ]
                        },
                        "value": "2324-2_gamma-glutamyl-transferase-enzymatic-activity-per-volume-in-serum-or-plasma"
                    }
                ],
                "status": "final",
                "subject": {
                    "reference": "Patient/6c805ad2-1802-4b4c-ba1a-2da947f08551"
                },
                "valueQuantity": {
                    "code": "U/L",
                    "system": "http://unitsofmeasure.org",
                    "unit": "U/L",
                    "value": 32
                },
                "resourceType": "Observation"
            }
        },
        {
            "request": {
                "method": "PUT",
                "url": "Observation/131fe42c-fc86-41ed-becf-cad9cbf145bd"
            },
            "resource": {
                "id": "131fe42c-fc86-41ed-becf-cad9cbf145bd",
                "meta": {
                    "profile": [
                        "https://www.medizininformatik-initiative.de/fhir/core/modul-labor/StructureDefinition/ObservationLab"
                    ]
                },
                "category": [
                    {
                        "coding": [
                            {
                                "code": "26436-6",
                                "system": "http://loinc.org"
                            },
                            {
                                "code": "laboratory",
                                "system": "http://terminology.hl7.org/CodeSystem/observation-category"
                            }
                        ]
                    }
                ],
                "code": {
                    "coding": [
                        {
                            "code": "30239-8",
                            "display": "Aspartate aminotransferase [Enzymatic activity/volume] in Serum or Plasma by With P-5-P",
                            "system": "http://loinc.org"
                        }
                    ],
                    "text": "Aspartate aminotransferase"
                },
                "effectiveDateTime": "2020-11-17T10:51:11+01:00",
                "identifier": [
                    {
                        "assigner": {
                            "reference": "Organization/Charit\u00e9"
                        },
                        "system": "https://www.charite.de/fhir/CodeSystem/lab-identifiers",
                        "type": {
                            "coding": [
                                {
                                    "code": "OBI",
                                    "system": "http://terminology.hl7.org/CodeSystem/v2-0203"
                                }
                            ]
                        },
                        "value": "30239-8_aspartate-aminotransferase-enzymatic-activity-per-volume-in-serum-or-plasma-by-with-p-5-p"
                    }
                ],
                "status": "final",
                "subject": {
                    "reference": "Patient/6c805ad2-1802-4b4c-ba1a-2da947f08551"
                },
                "valueQuantity": {
                    "code": "U/L",
                    "system": "http://unitsofmeasure.org",
                    "unit": "U/L",
                    "value": 21
                },
                "resourceType": "Observation"
            }
        },
        {
            "request": {
                "method": "PUT",
                "url": "Observation/0d54c719-a13f-4736-b920-db3042e9d26b"
            },
            "resource": {
                "id": "0d54c719-a13f-4736-b920-db3042e9d26b",
                "meta": {
                    "profile": [
                        "https://www.medizininformatik-initiative.de/fhir/core/modul-labor/StructureDefinition/ObservationLab"
                    ]
                },
                "category": [
                    {
                        "coding": [
                            {
                                "code": "26436-6",
                                "system": "http://loinc.org"
                            },
                            {
                                "code": "laboratory",
                                "system": "http://terminology.hl7.org/CodeSystem/observation-category"
                            }
                        ]
                    }
                ],
                "code": {
                    "coding": [
                        {
                            "code": "14804-9",
                            "display": "Lactate dehydrogenase [Enzymatic activity/volume] in Serum or Plasma by Lactate to pyruvate reaction",
                            "system": "http://loinc.org"
                        }
                    ],
                    "text": "Lactate dehydrogenase"
                },
                "effectiveDateTime": "2020-11-17T10:51:11+01:00",
                "identifier": [
                    {
                        "assigner": {
                            "reference": "Organization/Charit\u00e9"
                        },
                        "system": "https://www.charite.de/fhir/CodeSystem/lab-identifiers",
                        "type": {
                            "coding": [
                                {
                                    "code": "OBI",
                                    "system": "http://terminology.hl7.org/CodeSystem/v2-0203"
                                }
                            ]
                        },
                        "value": "14804-9_lactate-dehydrogenase-enzymatic-activity-per-volume-in-serum-or-plasma-by-lactate-to-pyruvate-reaction"
                    }
                ],
                "status": "final",
                "subject": {
                    "reference": "Patient/6c805ad2-1802-4b4c-ba1a-2da947f08551"
                },
                "valueQuantity": {
                    "code": "U/L",
                    "system": "http://unitsofmeasure.org",
                    "unit": "U/L",
                    "value": 140
                },
                "resourceType": "Observation"
            }
        },
        {
            "request": {
                "method": "PUT",
                "url": "Observation/bfca9383-a7e5-498b-91f8-b549c8282dd1"
            },
            "resource": {
                "id": "bfca9383-a7e5-498b-91f8-b549c8282dd1",
                "meta": {
                    "profile": [
                        "https://www.medizininformatik-initiative.de/fhir/core/modul-labor/StructureDefinition/ObservationLab"
                    ]
                },
                "category": [
                    {
                        "coding": [
                            {
                                "code": "26436-6",
                                "system": "http://loinc.org"
                            },
                            {
                                "code": "laboratory",
                                "system": "http://terminology.hl7.org/CodeSystem/observation-category"
                            }
                        ]
                    }
                ],
                "code": {
                    "coding": [
                        {
                            "code": "67151-1",
                            "display": "Troponin T.cardiac [Mass/volume] in Serum or Plasma by High sensitivity method",
                            "system": "http://loinc.org"
                        }
                    ],
                    "text": "Cardiac troponin"
                },
                "effectiveDateTime": "2020-11-17T10:51:11+01:00",
                "identifier": [
                    {
                        "assigner": {
                            "reference": "Organization/Charit\u00e9"
                        },
                        "system": "https://www.charite.de/fhir/CodeSystem/lab-identifiers",
                        "type": {
                            "coding": [
                                {
                                    "code": "OBI",
                                    "system": "http://terminology.hl7.org/CodeSystem/v2-0203"
                                }
                            ]
                        },
                        "value": "67151-1_troponin-t.cardiac-mass-per-volume-in-serum-or-plasma-by-high-sensitivity-method"
                    }
                ],
                "status": "final",
                "subject": {
                    "reference": "Patient/6c805ad2-1802-4b4c-ba1a-2da947f08551"
                },
                "valueQuantity": {
                    "code": "ng/L",
                    "system": "http://unitsofmeasure.org",
                    "unit": "ng/L",
                    "value": 5
                },
                "resourceType": "Observation"
            }
        },
        {
            "request": {
                "method": "PUT",
                "url": "Observation/620eafe6-d070-4135-87c8-0fe3af6051fa"
            },
            "resource": {
                "id": "620eafe6-d070-4135-87c8-0fe3af6051fa",
                "meta": {
                    "profile": [
                        "https://www.medizininformatik-initiative.de/fhir/core/modul-labor/StructureDefinition/ObservationLab"
                    ]
                },
                "category": [
                    {
                        "coding": [
                            {
                                "code": "26436-6",
                                "system": "http://loinc.org"
                            },
                            {
                                "code": "laboratory",
                                "system": "http://terminology.hl7.org/CodeSystem/observation-category"
                            }
                        ]
                    }
                ],
                "code": {
                    "coding": [
                        {
                            "code": "718-7",
                            "display": "Hemoglobin [Mass/volume] in Blood",
                            "system": "http://loinc.org"
                        }
                    ],
                    "text": "Hemoglobin"
                },
                "effectiveDateTime": "2020-11-17T10:51:11+01:00",
                "identifier": [
                    {
                        "assigner": {
                            "reference": "Organization/Charit\u00e9"
                        },
                        "system": "https://www.charite.de/fhir/CodeSystem/lab-identifiers",
                        "type": {
                            "coding": [
                                {
                                    "code": "OBI",
                                    "system": "http://terminology.hl7.org/CodeSystem/v2-0203"
                                }
                            ]
                        },
                        "value": "718-7_hemoglobin-mass-per-volume-in-blood"
                    }
                ],
                "status": "final",
                "subject": {
                    "reference": "Patient/6c805ad2-1802-4b4c-ba1a-2da947f08551"
                },
                "valueQuantity": {
                    "code": "g/dL",
                    "system": "http://unitsofmeasure.org",
                    "unit": "g/dL",
                    "value": 15.9
                },
                "resourceType": "Observation"
            }
        },
        {
            "request": {
                "method": "PUT",
                "url": "Observation/48c661b2-3b4e-42d2-bf47-cfee29ea6415"
            },
            "resource": {
                "id": "48c661b2-3b4e-42d2-bf47-cfee29ea6415",
                "meta": {
                    "profile": [
                        "https://www.medizininformatik-initiative.de/fhir/core/modul-labor/StructureDefinition/ObservationLab"
                    ]
                },
                "category": [
                    {
                        "coding": [
                            {
                                "code": "26436-6",
                                "system": "http://loinc.org"
                            },
                            {
                                "code": "laboratory",
                                "system": "http://terminology.hl7.org/CodeSystem/observation-category"
                            }
                        ]
                    }
                ],
                "code": {
                    "coding": [
                        {
                            "code": "2160-0",
                            "display": "Creatinine [Mass/volume] in Serum or Plasma",
                            "system": "http://loinc.org"
                        }
                    ],
                    "text": "Creatinine"
                },
                "effectiveDateTime": "2020-11-17T10:51:11+01:00",
                "identifier": [
                    {
                        "assigner": {
                            "reference": "Organization/Charit\u00e9"
                        },
                        "system": "https://www.charite.de/fhir/CodeSystem/lab-identifiers",
                        "type": {
                            "coding": [
                                {
                                    "code": "OBI",
                                    "system": "http://terminology.hl7.org/CodeSystem/v2-0203"
                                }
                            ]
                        },
                        "value": "2160-0_creatinine-mass-per-volume-in-serum-or-plasma"
                    }
                ],
                "status": "final",
                "subject": {
                    "reference": "Patient/6c805ad2-1802-4b4c-ba1a-2da947f08551"
                },
                "valueQuantity": {
                    "code": "mg/dL",
                    "system": "http://unitsofmeasure.org",
                    "unit": "mg/dL",
                    "value": 0.56
                },
                "resourceType": "Observation"
            }
        },
        {
            "request": {
                "method": "PUT",
                "url": "Observation/4a9de4b1-5bef-4680-b719-c1b179a580c3"
            },
            "resource": {
                "id": "4a9de4b1-5bef-4680-b719-c1b179a580c3",
                "meta": {
                    "profile": [
                        "https://www.medizininformatik-initiative.de/fhir/core/modul-labor/StructureDefinition/ObservationLab"
                    ]
                },
                "category": [
                    {
                        "coding": [
                            {
                                "code": "26436-6",
                                "system": "http://loinc.org"
                            },
                            {
                                "code": "laboratory",
                                "system": "http://terminology.hl7.org/CodeSystem/observation-category"
                            }
                        ]
                    }
                ],
                "code": {
                    "coding": [
                        {
                            "code": "2519-7",
                            "display": "Lactate [Moles/volume] in Venous blood",
                            "system": "http://loinc.org"
                        }
                    ],
                    "text": "Lactate"
                },
                "effectiveDateTime": "2020-11-17T10:51:11+01:00",
                "identifier": [
                    {
                        "assigner": {
                            "reference": "Organization/Charit\u00e9"
                        },
                        "system": "https://www.charite.de/fhir/CodeSystem/lab-identifiers",
                        "type": {
                            "coding": [
                                {
                                    "code": "OBI",
                                    "system": "http://terminology.hl7.org/CodeSystem/v2-0203"
                                }
                            ]
                        },
                        "value": "2519-7_lactate-moles-per-volume-in-venous-blood"
                    }
                ],
                "status": "final",
                "subject": {
                    "reference": "Patient/6c805ad2-1802-4b4c-ba1a-2da947f08551"
                },
                "valueQuantity": {
                    "code": "mmol/L",
                    "system": "http://unitsofmeasure.org",
                    "unit": "mmol/L",
                    "value": 14.6
                },
                "resourceType": "Observation"
            }
        },
        {
            "request": {
                "method": "PUT",
                "url": "Observation/931ef34b-51c6-4598-9d1b-7788c8c7ce6d"
            },
            "resource": {
                "id": "931ef34b-51c6-4598-9d1b-7788c8c7ce6d",
                "meta": {
                    "profile": [
                        "https://www.medizininformatik-initiative.de/fhir/core/modul-labor/StructureDefinition/ObservationLab"
                    ]
                },
                "category": [
                    {
                        "coding": [
                            {
                                "code": "26436-6",
                                "system": "http://loinc.org"
                            },
                            {
                                "code": "laboratory",
                                "system": "http://terminology.hl7.org/CodeSystem/observation-category"
                            }
                        ]
                    }
                ],
                "code": {
                    "coding": [
                        {
                            "code": "6690-2",
                            "display": "Leukocytes [#/volume] in Blood by Automated count",
                            "system": "http://loinc.org"
                        }
                    ],
                    "text": "Leukocytes"
                },
                "effectiveDateTime": "2020-11-17T10:51:11+01:00",
                "identifier": [
                    {
                        "assigner": {
                            "reference": "Organization/Charit\u00e9"
                        },
                        "system": "https://www.charite.de/fhir/CodeSystem/lab-identifiers",
                        "type": {
                            "coding": [
                                {
                                    "code": "OBI",
                                    "system": "http://terminology.hl7.org/CodeSystem/v2-0203"
                                }
                            ]
                        },
                        "value": "6690-2_leukocytes-number-per-volume-in-blood-by-automated-count"
                    }
                ],
                "status": "final",
                "subject": {
                    "reference": "Patient/6c805ad2-1802-4b4c-ba1a-2da947f08551"
                },
                "valueQuantity": {
                    "code": "10*3/uL",
                    "system": "http://unitsofmeasure.org",
                    "unit": "10*3/uL",
                    "value": 7.06
                },
                "resourceType": "Observation"
            }
        },
        {
            "request": {
                "method": "PUT",
                "url": "Observation/6ae032bf-e5b0-4395-8071-091447e78f47"
            },
            "resource": {
                "id": "6ae032bf-e5b0-4395-8071-091447e78f47",
                "meta": {
                    "profile": [
                        "https://www.medizininformatik-initiative.de/fhir/core/modul-labor/StructureDefinition/ObservationLab"
                    ]
                },
                "category": [
                    {
                        "coding": [
                            {
                                "code": "26436-6",
                                "system": "http://loinc.org"
                            },
                            {
                                "code": "laboratory",
                                "system": "http://terminology.hl7.org/CodeSystem/observation-category"
                            }
                        ]
                    }
                ],
                "code": {
                    "coding": [
                        {
                            "code": "731-0",
                            "display": "Lymphocytes [#/volume] in Blood by Automated count",
                            "system": "http://loinc.org"
                        }
                    ],
                    "text": "Lymphocytes"
                },
                "effectiveDateTime": "2020-11-17T10:51:11+01:00",
                "identifier": [
                    {
                        "assigner": {
                            "reference": "Organization/Charit\u00e9"
                        },
                        "system": "https://www.charite.de/fhir/CodeSystem/lab-identifiers",
                        "type": {
                            "coding": [
                                {
                                    "code": "OBI",
                                    "system": "http://terminology.hl7.org/CodeSystem/v2-0203"
                                }
                            ]
                        },
                        "value": "731-0_lymphocytes-number-per-volume-in-blood-by-automated-count"
                    }
                ],
                "status": "final",
                "subject": {
                    "reference": "Patient/6c805ad2-1802-4b4c-ba1a-2da947f08551"
                },
                "valueQuantity": {
                    "code": "10*3/uL",
                    "system": "http://unitsofmeasure.org",
                    "unit": "10*3/uL",
                    "value": 4.35
                },
                "resourceType": "Observation"
            }
        },
        {
            "request": {
                "method": "PUT",
                "url": "Observation/4589e7f4-733f-4ad0-a2d0-b5a6d2e3eafb"
            },
            "resource": {
                "id": "4589e7f4-733f-4ad0-a2d0-b5a6d2e3eafb",
                "meta": {
                    "profile": [
                        "https://www.medizininformatik-initiative.de/fhir/core/modul-labor/StructureDefinition/ObservationLab"
                    ]
                },
                "category": [
                    {
                        "coding": [
                            {
                                "code": "26436-6",
                                "system": "http://loinc.org"
                            },
                            {
                                "code": "laboratory",
                                "system": "http://terminology.hl7.org/CodeSystem/observation-category"
                            }
                        ]
                    }
                ],
                "code": {
                    "coding": [
                        {
                            "code": "751-8",
                            "display": "Neutrophils [#/volume] in Blood by Automated count",
                            "system": "http://loinc.org"
                        }
                    ],
                    "text": "Neutrophils"
                },
                "effectiveDateTime": "2020-11-17T10:51:11+01:00",
                "identifier": [
                    {
                        "assigner": {
                            "reference": "Organization/Charit\u00e9"
                        },
                        "system": "https://www.charite.de/fhir/CodeSystem/lab-identifiers",
                        "type": {
                            "coding": [
                                {
                                    "code": "OBI",
                                    "system": "http://terminology.hl7.org/CodeSystem/v2-0203"
                                }
                            ]
                        },
                        "value": "751-8_neutrophils-number-per-volume-in-blood-by-automated-count"
                    }
                ],
                "status": "final",
                "subject": {
                    "reference": "Patient/6c805ad2-1802-4b4c-ba1a-2da947f08551"
                },
                "valueQuantity": {
                    "code": "10*3/uL",
                    "system": "http://unitsofmeasure.org",
                    "unit": "10*3/uL",
                    "value": 7.4
                },
                "resourceType": "Observation"
            }
        },
        {
            "request": {
                "method": "PUT",
                "url": "Observation/98c70242-7d70-42f7-b5e9-c90eec806070"
            },
            "resource": {
                "id": "98c70242-7d70-42f7-b5e9-c90eec806070",
                "meta": {
                    "profile": [
                        "https://www.netzwerk-universitaetsmedizin.de/fhir/StructureDefinition/sars-cov-2-rt-pcr"
                    ]
                },
                "category": [
                    {
                        "coding": [
                            {
                                "code": "26436-6",
                                "system": "http://loinc.org"
                            },
                            {
                                "code": "laboratory",
                                "system": "http://terminology.hl7.org/CodeSystem/observation-category"
                            }
                        ]
                    }
                ],
                "code": {
                    "coding": [
                        {
                            "code": "94500-6",
                            "display": "SARS-CoV-2 (COVID-19) RNA [Presence] in Respiratory specimen by NAA with probe detection",
                            "system": "http://loinc.org"
                        }
                    ],
                    "text": "SARS-CoV-2-RNA (PCR)"
                },
                "effectiveDateTime": "2020-11-17T10:51:11+01:00",
                "identifier": [
                    {
                        "assigner": {
                            "reference": "Organization/Charit\u00e9"
                        },
                        "system": "https://www.charite.de/fhir/CodeSystem/lab-identifiers",
                        "type": {
                            "coding": [
                                {
                                    "code": "OBI",
                                    "system": "http://terminology.hl7.org/CodeSystem/v2-0203"
                                }
                            ]
                        },
                        "value": "94500-6_SARS-CoV-2-RNA-Presence-in-Respiratory-specimen"
                    }
                ],
                "status": "final",
                "subject": {
                    "reference": "Patient/6c805ad2-1802-4b4c-ba1a-2da947f08551"
                },
                "valueCodeableConcept": {
                    "coding": [
                        {
                            "code": "260373001",
                            "display": "Detected (qualifier value)",
                            "system": "http://snomed.info/sct"
                        }
                    ],
                    "text": "SARS-CoV-2-RNA positiv"
                },
                "resourceType": "Observation"
            }
        },
        {
            "request": {
                "method": "PUT",
                "url": "Observation/55a75b52-131e-4c20-bbff-27c39e911f92"
            },
            "resource": {
                "id": "55a75b52-131e-4c20-bbff-27c39e911f92",
                "meta": {
                    "profile": [
                        "https://www.netzwerk-universitaetsmedizin.de/fhir/StructureDefinition/sars-cov-2-ab-ser-pl-ql-ia"
                    ]
                },
                "category": [
                    {
                        "coding": [
                            {
                                "code": "26436-6",
                                "system": "http://loinc.org"
                            },
                            {
                                "code": "laboratory",
                                "system": "http://terminology.hl7.org/CodeSystem/observation-category"
                            }
                        ]
                    }
                ],
                "code": {
                    "coding": [
                        {
                            "code": "94762-2",
                            "display": "SARS-CoV-2 (COVID-19) Ab [Presence] in Serum or Plasma by Immunoassay",
                            "system": "http://loinc.org"
                        }
                    ],
                    "text": "SARS-CoV-2 antibodies qualitative"
                },
                "effectiveDateTime": "2020-11-17T10:51:11+01:00",
                "identifier": [
                    {
                        "assigner": {
                            "reference": "Organization/Charit\u00e9"
                        },
                        "system": "https://www.charite.de/fhir/CodeSystem/lab-identifiers",
                        "type": {
                            "coding": [
                                {
                                    "code": "OBI",
                                    "system": "http://terminology.hl7.org/CodeSystem/v2-0203"
                                }
                            ]
                        },
                        "value": "94762-2_SARS-CoV-2-Ab-Ql"
                    }
                ],
                "status": "final",
                "subject": {
                    "reference": "Patient/6c805ad2-1802-4b4c-ba1a-2da947f08551"
                },
                "valueCodeableConcept": {
                    "coding": [
                        {
                            "code": "419984006",
                            "display": "\tInconclusive (qualifier value)",
                            "system": "http://snomed.info/sct"
                        }
                    ]
                },
                "resourceType": "Observation"
            }
        },
        {
            "request": {
                "method": "PUT",
                "url": "Observation/41b85012-ac8f-48b0-88f3-a82224a885f5"
            },
            "resource": {
                "id": "41b85012-ac8f-48b0-88f3-a82224a885f5",
                "meta": {
                    "profile": [
                        "https://www.netzwerk-universitaetsmedizin.de/fhir/StructureDefinition/sars-cov-2-iga-ser-pl-ql-ia"
                    ]
                },
                "category": [
                    {
                        "coding": [
                            {
                                "code": "26436-6",
                                "system": "http://loinc.org"
                            },
                            {
                                "code": "laboratory",
                                "system": "http://terminology.hl7.org/CodeSystem/observation-category"
                            }
                        ]
                    }
                ],
                "code": {
                    "coding": [
                        {
                            "code": "94562-6",
                            "display": "SARS-CoV-2 (COVID-19) IgA Ab [Presence] in Serum or Plasma by Immunoassay",
                            "system": "http://loinc.org"
                        }
                    ],
                    "text": "SARS-CoV-2 IgA antibodies qualitative"
                },
                "effectiveDateTime": "2020-11-17T10:51:11+01:00",
                "identifier": [
                    {
                        "assigner": {
                            "reference": "Organization/Charit\u00e9"
                        },
                        "system": "https://www.charite.de/fhir/CodeSystem/lab-identifiers",
                        "type": {
                            "coding": [
                                {
                                    "code": "OBI",
                                    "system": "http://terminology.hl7.org/CodeSystem/v2-0203"
                                }
                            ]
                        },
                        "value": "94562-6_SARS-CoV-2-IgA-Ql"
                    }
                ],
                "status": "final",
                "subject": {
                    "reference": "Patient/6c805ad2-1802-4b4c-ba1a-2da947f08551"
                },
                "valueCodeableConcept": {
                    "coding": [
                        {
                            "code": "260415000",
                            "display": "Not detected (qualifier value)",
                            "system": "http://snomed.info/sct"
                        }
                    ]
                },
                "resourceType": "Observation"
            }
        },
        {
            "request": {
                "method": "PUT",
                "url": "Observation/ede6739d-a223-4308-932a-ebcba68422bb"
            },
            "resource": {
                "id": "ede6739d-a223-4308-932a-ebcba68422bb",
                "meta": {
                    "profile": [
                        "https://www.netzwerk-universitaetsmedizin.de/fhir/StructureDefinition/sars-cov-2-igg-ser-pl-ql-ia"
                    ]
                },
                "category": [
                    {
                        "coding": [
                            {
                                "code": "26436-6",
                                "system": "http://loinc.org"
                            },
                            {
                                "code": "laboratory",
                                "system": "http://terminology.hl7.org/CodeSystem/observation-category"
                            }
                        ]
                    }
                ],
                "code": {
                    "coding": [
                        {
                            "code": "94563-4",
                            "display": "SARS-CoV-2 (COVID-19) IgG Ab [Presence] in Serum or Plasma by Immunoassay",
                            "system": "http://loinc.org"
                        }
                    ],
                    "text": "SARS-CoV-2 IgG antibodies qualitative"
                },
                "effectiveDateTime": "2020-11-17T10:51:11+01:00",
                "identifier": [
                    {
                        "assigner": {
                            "reference": "Organization/Charit\u00e9"
                        },
                        "system": "https://www.charite.de/fhir/CodeSystem/lab-identifiers",
                        "type": {
                            "coding": [
                                {
                                    "code": "OBI",
                                    "system": "http://terminology.hl7.org/CodeSystem/v2-0203"
                                }
                            ]
                        },
                        "value": "94563-4_SARS-CoV-2-IgG-Ql"
                    }
                ],
                "status": "final",
                "subject": {
                    "reference": "Patient/6c805ad2-1802-4b4c-ba1a-2da947f08551"
                },
                "valueCodeableConcept": {
                    "coding": [
                        {
                            "code": "419984006",
                            "display": "\tInconclusive (qualifier value)",
                            "system": "http://snomed.info/sct"
                        }
                    ]
                },
                "resourceType": "Observation"
            }
        },
        {
            "request": {
                "method": "PUT",
                "url": "Observation/fe1ba8cb-8b59-4703-b617-91c6a578b8e6"
            },
            "resource": {
                "id": "fe1ba8cb-8b59-4703-b617-91c6a578b8e6",
                "meta": {
                    "profile": [
                        "https://www.netzwerk-universitaetsmedizin.de/fhir/StructureDefinition/sars-cov-2-igm-ser-pl-ql-ia"
                    ]
                },
                "category": [
                    {
                        "coding": [
                            {
                                "code": "26436-6",
                                "system": "http://loinc.org"
                            },
                            {
                                "code": "laboratory",
                                "system": "http://terminology.hl7.org/CodeSystem/observation-category"
                            }
                        ]
                    }
                ],
                "code": {
                    "coding": [
                        {
                            "code": "94564-2",
                            "display": "SARS-CoV-2 (COVID-19) IgM Ab [Presence] in Serum or Plasma by Immunoassay",
                            "system": "http://loinc.org"
                        }
                    ],
                    "text": "SARS-CoV-2 IgM antibodies qualitative"
                },
                "effectiveDateTime": "2020-11-17T10:51:11+01:00",
                "identifier": [
                    {
                        "assigner": {
                            "reference": "Organization/Charit\u00e9"
                        },
                        "system": "https://www.charite.de/fhir/CodeSystem/lab-identifiers",
                        "type": {
                            "coding": [
                                {
                                    "code": "OBI",
                                    "system": "http://terminology.hl7.org/CodeSystem/v2-0203"
                                }
                            ]
                        },
                        "value": "94564-2_SARS-CoV-2-IgM-Ql"
                    }
                ],
                "status": "final",
                "subject": {
                    "reference": "Patient/6c805ad2-1802-4b4c-ba1a-2da947f08551"
                },
                "valueCodeableConcept": {
                    "coding": [
                        {
                            "code": "419984006",
                            "display": "\tInconclusive (qualifier value)",
                            "system": "http://snomed.info/sct"
                        }
                    ]
                },
                "resourceType": "Observation"
            }
        },
        {
            "request": {
                "method": "PUT",
                "url": "Observation/f89fcbd0-20d1-4281-b4aa-07e916a9a835"
            },
            "resource": {
                "id": "f89fcbd0-20d1-4281-b4aa-07e916a9a835",
                "meta": {
                    "profile": [
                        "https://www.netzwerk-universitaetsmedizin.de/fhir/StructureDefinition/sars-cov-2-ab-pnl-ser-pl-ia"
                    ]
                },
                "category": [
                    {
                        "coding": [
                            {
                                "code": "26436-6",
                                "system": "http://loinc.org"
                            },
                            {
                                "code": "laboratory",
                                "system": "http://terminology.hl7.org/CodeSystem/observation-category"
                            }
                        ]
                    }
                ],
                "code": {
                    "coding": [
                        {
                            "code": "94504-8",
                            "display": "SARS-CoV-2 (COVID-19) Ab panel - Serum or Plasma by Immunoassay",
                            "system": "http://loinc.org"
                        }
                    ],
                    "text": "SARS-CoV-2 antibodies panel"
                },
                "effectiveDateTime": "2020-11-17T10:51:11+01:00",
                "hasMember": [
                    {
                        "reference": "Observation/55a75b52-131e-4c20-bbff-27c39e911f92"
                    },
                    {
                        "reference": "Observation/41b85012-ac8f-48b0-88f3-a82224a885f5"
                    },
                    {
                        "reference": "Observation/ede6739d-a223-4308-932a-ebcba68422bb"
                    },
                    {
                        "reference": "Observation/fe1ba8cb-8b59-4703-b617-91c6a578b8e6"
                    }
                ],
                "identifier": [
                    {
                        "assigner": {
                            "reference": "Organization/Charit\u00e9"
                        },
                        "system": "https://www.charite.de/fhir/CodeSystem/lab-identifiers",
                        "type": {
                            "coding": [
                                {
                                    "code": "OBI",
                                    "system": "http://terminology.hl7.org/CodeSystem/v2-0203"
                                }
                            ]
                        },
                        "value": "94504-8_SARS-CoV-2-Ab-Panel"
                    }
                ],
                "status": "final",
                "subject": {
                    "reference": "Patient/6c805ad2-1802-4b4c-ba1a-2da947f08551"
                },
                "resourceType": "Observation"
            }
        },
        {
            "request": {
                "method": "POST",
                "url": "MedicationStatement"
            },
            "resource": {
                "id": "5ead3dad-e9e7-47e8-9e80-b007f692237f",
                "meta": {
                    "profile": [
                        "https://www.netzwerk-universitaetsmedizin.de/fhir/StructureDefinition/pharmacological-therapy"
                    ]
                },
                "effectiveDateTime": "2020-11-17T10:51:11+01:00",
                "medicationCodeableConcept": {
                    "coding": [
                        {
                            "code": "424096001",
                            "display": "Product containing darunavir (medicinal product)",
                            "system": "http://snomed.info/sct"
                        },
                        {
                            "code": "J05AE10",
                            "display": "Darunavir",
                            "system": "http://fhir.de/CodeSystem/dimdi/atc"
                        }
                    ],
                    "text": "Darunavir"
                },
                "status": "active",
                "subject": {
                    "reference": "Patient/6c805ad2-1802-4b4c-ba1a-2da947f08551"
                },
                "resourceType": "MedicationStatement"
            }
        },
        {
            "request": {
                "method": "POST",
                "url": "MedicationStatement"
            },
            "resource": {
                "id": "0734841e-88d7-4568-87cc-96f5beaf2892",
                "meta": {
                    "profile": [
                        "https://www.netzwerk-universitaetsmedizin.de/fhir/StructureDefinition/pharmacological-therapy-ace-inhibitors"
                    ]
                },
                "effectiveDateTime": "2020-11-17T10:51:11+01:00",
                "medicationCodeableConcept": {
                    "coding": [
                        {
                            "code": "41549009",
                            "display": "Product containing angiotensin-converting enzyme inhibitor (product)",
                            "system": "http://snomed.info/sct"
                        },
                        {
                            "code": "C09A",
                            "display": "ACE-HEMMER, REIN",
                            "system": "http://fhir.de/CodeSystem/dimdi/atc"
                        }
                    ],
                    "text": "ACE inhibitors"
                },
                "status": "stopped",
                "subject": {
                    "reference": "Patient/6c805ad2-1802-4b4c-ba1a-2da947f08551"
                },
                "resourceType": "MedicationStatement"
            }
        },
        {
            "request": {
                "method": "POST",
                "url": "MedicationStatement"
            },
            "resource": {
                "id": "5ec6b045-b15a-49b5-b781-5093303148e0",
                "meta": {
                    "profile": [
                        "https://www.netzwerk-universitaetsmedizin.de/fhir/StructureDefinition/pharmacological-therapy-immunoglobulins"
                    ]
                },
                "effectiveDateTime": "2020-11-17T10:51:11+01:00",
                "medicationCodeableConcept": {
                    "coding": [
                        {
                            "code": "333710000",
                            "display": "Product containing immunoglobulin (product)",
                            "system": "http://snomed.info/sct"
                        },
                        {
                            "code": "J06B",
                            "display": "IMMUNGLOBULINE",
                            "system": "http://fhir.de/CodeSystem/dimdi/atc"
                        }
                    ],
                    "text": "immunoglobulins"
                },
                "status": "not-taken",
                "subject": {
                    "reference": "Patient/6c805ad2-1802-4b4c-ba1a-2da947f08551"
                },
                "resourceType": "MedicationStatement"
            }
        },
        {
            "request": {
                "method": "POST",
                "url": "MedicationStatement"
            },
            "resource": {
                "id": "4fb11d2a-e9cb-44a8-8ffd-fa25e51662fd",
                "meta": {
                    "profile": [
                        "https://www.netzwerk-universitaetsmedizin.de/fhir/StructureDefinition/pharmacological-therapy-anticoagulants"
                    ]
                },
                "effectiveDateTime": "2020-11-17T10:51:11+01:00",
                "medicationCodeableConcept": {
                    "coding": [
                        {
                            "code": "108984007",
                            "display": "Product containing enoxaparin (medicinal product)",
                            "system": "http://snomed.info/sct"
                        },
                        {
                            "code": "B01AB05",
                            "display": "Enoxaparin",
                            "system": "http://fhir.de/CodeSystem/dimdi/atc"
                        }
                    ],
                    "text": "Low-molecular-weight heparin"
                },
                "reasonCode": [
                    {
                        "coding": [
                            {
                                "code": "360271000",
                                "display": "Prophylaxis - procedure intent (qualifier value)",
                                "system": "http://snomed.info/sct"
                            }
                        ]
                    }
                ],
                "status": "active",
                "subject": {
                    "reference": "Patient/6c805ad2-1802-4b4c-ba1a-2da947f08551"
                },
                "resourceType": "MedicationStatement"
            }
        },
        {
            "request": {
                "method": "POST",
                "url": "Condition"
            },
            "resource": {
                "id": "83d591f8-47b1-4f64-a15b-a96d0c28e9c7",
                "meta": {
                    "profile": [
                        "https://www.netzwerk-universitaetsmedizin.de/fhir/StructureDefinition/dependence-on-ventilator"
                    ]
                },
                "category": [
                    {
                        "coding": [
                            {
                                "code": "404989005",
                                "display": "Ventilation status (observable entity)",
                                "system": "http://snomed.info/sct"
                            }
                        ]
                    }
                ],
                "clinicalStatus": {
                    "coding": [
                        {
                            "code": "active",
                            "display": "Active",
                            "system": "http://terminology.hl7.org/CodeSystem/condition-clinical"
                        }
                    ]
                },
                "code": {
                    "coding": [
                        {
                            "code": "444932008",
                            "display": "Dependence on ventilator (finding)",
                            "system": "http://snomed.info/sct"
                        }
                    ]
                },
                "recordedDate": "2020-11-17T10:51:11+01:00",
                "subject": {
                    "reference": "Patient/6c805ad2-1802-4b4c-ba1a-2da947f08551"
                },
                "verificationStatus": {
                    "coding": [
                        {
                            "code": "confirmed",
                            "display": "Confirmed",
                            "system": "http://terminology.hl7.org/CodeSystem/condition-ver-status"
                        },
                        {
                            "code": "410605003",
                            "display": "Confirmed present (qualifier value)",
                            "system": "http://snomed.info/sct"
                        }
                    ]
                },
                "resourceType": "Condition"
            }
        },
        {
            "request": {
                "method": "PUT",
                "url": "Observation/39d2c740-9608-41f5-a623-93ca15a60d9c"
            },
            "resource": {
                "id": "39d2c740-9608-41f5-a623-93ca15a60d9c",
                "meta": {
                    "profile": [
                        "https://www.netzwerk-universitaetsmedizin.de/fhir/StructureDefinition/discharge-disposition"
                    ]
                },
                "category": [
                    {
                        "coding": [
                            {
                                "code": "social-history",
                                "system": "http://terminology.hl7.org/CodeSystem/observation-category"
                            }
                        ]
                    }
                ],
                "code": {
                    "coding": [
                        {
                            "code": "55128-3",
                            "display": "Discharge disposition",
                            "system": "http://loinc.org"
                        }
                    ],
                    "text": "Type of discharge"
                },
                "effectiveDateTime": "2020-11-17T10:51:11+01:00",
                "identifier": [
                    {
                        "assigner": {
                            "reference": "Organization/Charit\u00e9"
                        },
                        "system": "https://www.charite.de/fhir/CodeSystem/observation-identifiers",
                        "type": {
                            "coding": [
                                {
                                    "code": "OBI",
                                    "system": "http://terminology.hl7.org/CodeSystem/v2-0203"
                                }
                            ]
                        },
                        "value": "55128-3_DischargeDisposition"
                    }
                ],
                "status": "final",
                "subject": {
                    "reference": "Patient/6c805ad2-1802-4b4c-ba1a-2da947f08551"
                },
                "valueCodeableConcept": {
                    "coding": [
                        {
                            "code": "3457005",
                            "display": "Patient referral (procedure)",
                            "system": "http://snomed.info/sct"
                        }
                    ]
                },
                "resourceType": "Observation"
            }
        },
        {
            "request": {
                "method": "PUT",
                "url": "Observation/d453753f-64cd-4e20-affa-70c4df0ebf96"
            },
            "resource": {
                "id": "d453753f-64cd-4e20-affa-70c4df0ebf96",
                "meta": {
                    "profile": [
                        "https://www.netzwerk-universitaetsmedizin.de/fhir/StructureDefinition/study-inclusion-covid-19"
                    ]
                },
                "category": [
                    {
                        "coding": [
                            {
                                "code": "survey",
                                "system": "http://terminology.hl7.org/CodeSystem/observation-category"
                            }
                        ]
                    }
                ],
                "code": {
                    "coding": [
                        {
                            "code": "02",
                            "display": "Study inclusion due to Covid-19",
                            "system": "https://www.netzwerk-universitaetsmedizin.de/fhir/CodeSystem/ecrf-parameter-codes"
                        }
                    ],
                    "text": "Confirmed Covid-19 diagnosis as main reason for enrolment in the study"
                },
                "effectiveDateTime": "2020-11-17T10:51:11+01:00",
                "identifier": [
                    {
                        "assigner": {
                            "reference": "Organization/Charit\u00e9"
                        },
                        "system": "https://www.charite.de/fhir/CodeSystem/observation-identifiers",
                        "type": {
                            "coding": [
                                {
                                    "code": "OBI",
                                    "system": "http://terminology.hl7.org/CodeSystem/v2-0203"
                                }
                            ]
                        },
                        "value": "ecrf_02_StudyInclusionCovid19"
                    }
                ],
                "status": "final",
                "subject": {
                    "reference": "Patient/6c805ad2-1802-4b4c-ba1a-2da947f08551"
                },
                "valueCodeableConcept": {
                    "coding": [
                        {
                            "code": "373066001",
                            "display": "Yes (qualifier value)",
                            "system": "http://snomed.info/sct"
                        }
                    ],
                    "text": "Covid-19 as primary reason for study inclusion"
                },
                "resourceType": "Observation"
            }
        },
        {
            "request": {
                "method": "PUT",
                "url": "Observation/bb0da88e-7e3b-4905-af55-dbe1f8054c38"
            },
            "resource": {
                "id": "bb0da88e-7e3b-4905-af55-dbe1f8054c38",
                "meta": {
                    "profile": [
                        "https://www.netzwerk-universitaetsmedizin.de/fhir/StructureDefinition/interventional-clinical-trial-participation"
                    ]
                },
                "category": [
                    {
                        "coding": [
                            {
                                "code": "survey",
                                "system": "http://terminology.hl7.org/CodeSystem/observation-category"
                            }
                        ]
                    }
                ],
                "code": {
                    "coding": [
                        {
                            "code": "03",
                            "display": "Participation in interventional clinical trials",
                            "system": "https://www.netzwerk-universitaetsmedizin.de/fhir/CodeSystem/ecrf-parameter-codes"
                        }
                    ],
                    "text": "Has the patient participated in one or more interventional clinical trials?"
                },
                "effectiveDateTime": "2020-11-17T10:51:11+01:00",
                "identifier": [
                    {
                        "assigner": {
                            "reference": "Organization/Charit\u00e9"
                        },
                        "system": "https://www.charite.de/fhir/CodeSystem/observation-identifiers",
                        "type": {
                            "coding": [
                                {
                                    "code": "OBI",
                                    "system": "http://terminology.hl7.org/CodeSystem/v2-0203"
                                }
                            ]
                        },
                        "value": "ecrf_03_InterventionalClinicalTrialsParticipation"
                    }
                ],
                "status": "final",
                "subject": {
                    "reference": "Patient/6c805ad2-1802-4b4c-ba1a-2da947f08551"
                },
                "valueCodeableConcept": {
                    "coding": [
                        {
                            "code": "373067005",
                            "display": "No (qualifier value)",
                            "system": "http://snomed.info/sct"
                        }
                    ],
                    "text": "Patient is not enrolled in other studies"
                },
                "resourceType": "Observation"
            }
        },
        {
            "request": {
                "method": "POST",
                "url": "Condition"
            },
            "resource": {
                "id": "e2e25861-713b-4de5-8a9b-8013b88e335d",
                "meta": {
                    "profile": [
                        "https://www.netzwerk-universitaetsmedizin.de/fhir/StructureDefinition/symptoms-covid-19"
                    ]
                },
                "category": [
                    {
                        "coding": [
                            {
                                "code": "75325-1",
                                "display": "Symptom",
                                "system": "http://loinc.org"
                            }
                        ]
                    }
                ],
                "clinicalStatus": {
                    "coding": [
                        {
                            "code": "active",
                            "display": "Active",
                            "system": "http://terminology.hl7.org/CodeSystem/condition-clinical"
                        }
                    ]
                },
                "code": {
                    "coding": [
                        {
                            "code": "36955009",
                            "display": "Loss of taste (finding)",
                            "system": "http://snomed.info/sct"
                        }
                    ]
                },
                "recordedDate": "2020-11-17T10:51:11+01:00",
                "subject": {
                    "reference": "Patient/6c805ad2-1802-4b4c-ba1a-2da947f08551"
                },
                "verificationStatus": {
                    "coding": [
                        {
                            "code": "confirmed",
                            "display": "Confirmed",
                            "system": "http://terminology.hl7.org/CodeSystem/condition-ver-status"
                        },
                        {
                            "code": "410605003",
                            "display": "Confirmed present (qualifier value)",
                            "system": "http://snomed.info/sct"
                        }
                    ]
                },
                "resourceType": "Condition"
            }
        },
        {
            "request": {
                "method": "POST",
                "url": "Condition"
            },
            "resource": {
                "id": "db27403d-4432-4c78-a21e-c6f7c2f4999c",
                "meta": {
                    "profile": [
                        "https://www.netzwerk-universitaetsmedizin.de/fhir/StructureDefinition/symptoms-covid-19"
                    ]
                },
                "category": [
                    {
                        "coding": [
                            {
                                "code": "75325-1",
                                "display": "Symptom",
                                "system": "http://loinc.org"
                            }
                        ]
                    }
                ],
                "clinicalStatus": {
                    "coding": [
                        {
                            "code": "active",
                            "display": "Active",
                            "system": "http://terminology.hl7.org/CodeSystem/condition-clinical"
                        }
                    ]
                },
                "code": {
                    "coding": [
                        {
                            "code": "21522001",
                            "display": "Abdominal pain (finding)",
                            "system": "http://snomed.info/sct"
                        }
                    ]
                },
                "recordedDate": "2020-11-17T10:51:11+01:00",
                "subject": {
                    "reference": "Patient/6c805ad2-1802-4b4c-ba1a-2da947f08551"
                },
                "verificationStatus": {
                    "coding": [
                        {
                            "code": "confirmed",
                            "display": "Confirmed",
                            "system": "http://terminology.hl7.org/CodeSystem/condition-ver-status"
                        },
                        {
                            "code": "410605003",
                            "display": "Confirmed present (qualifier value)",
                            "system": "http://snomed.info/sct"
                        }
                    ]
                },
                "resourceType": "Condition"
            }
        },
        {
            "request": {
                "method": "POST",
                "url": "Condition"
            },
            "resource": {
                "id": "290ea19a-12d5-464b-9432-bee89779f82f",
                "meta": {
                    "profile": [
                        "https://www.netzwerk-universitaetsmedizin.de/fhir/StructureDefinition/symptoms-covid-19"
                    ]
                },
                "category": [
                    {
                        "coding": [
                            {
                                "code": "75325-1",
                                "display": "Symptom",
                                "system": "http://loinc.org"
                            }
                        ]
                    }
                ],
                "code": {
                    "coding": [
                        {
                            "code": "40917007",
                            "display": "Clouded consciousness (finding)",
                            "system": "http://snomed.info/sct"
                        }
                    ]
                },
                "recordedDate": "2020-11-17T10:51:11+01:00",
                "subject": {
                    "reference": "Patient/6c805ad2-1802-4b4c-ba1a-2da947f08551"
                },
                "verificationStatus": {
                    "coding": [
                        {
                            "code": "refuted",
                            "display": "Refuted",
                            "system": "http://terminology.hl7.org/CodeSystem/condition-ver-status"
                        },
                        {
                            "code": "410594000",
                            "display": "Definitely NOT present (qualifier value)",
                            "system": "http://snomed.info/sct"
                        }
                    ]
                },
                "resourceType": "Condition"
            }
        },
        {
            "request": {
                "method": "POST",
                "url": "Condition"
            },
            "resource": {
                "id": "22f90146-6c0d-445d-9816-2c6e4ed461b5",
                "meta": {
                    "profile": [
                        "https://www.netzwerk-universitaetsmedizin.de/fhir/StructureDefinition/symptoms-covid-19"
                    ]
                },
                "category": [
                    {
                        "coding": [
                            {
                                "code": "75325-1",
                                "display": "Symptom",
                                "system": "http://loinc.org"
                            }
                        ]
                    }
                ],
                "code": {
                    "coding": [
                        {
                            "code": "62315008",
                            "display": "Diarrhea (finding)",
                            "system": "http://snomed.info/sct"
                        }
                    ]
                },
                "recordedDate": "2020-11-17T10:51:11+01:00",
                "subject": {
                    "reference": "Patient/6c805ad2-1802-4b4c-ba1a-2da947f08551"
                },
                "verificationStatus": {
                    "coding": [
                        {
                            "code": "refuted",
                            "display": "Refuted",
                            "system": "http://terminology.hl7.org/CodeSystem/condition-ver-status"
                        },
                        {
                            "code": "410594000",
                            "display": "Definitely NOT present (qualifier value)",
                            "system": "http://snomed.info/sct"
                        }
                    ]
                },
                "resourceType": "Condition"
            }
        },
        {
            "request": {
                "method": "POST",
                "url": "Condition"
            },
            "resource": {
                "id": "bd0c8932-7c05-49d6-a366-4856affc4823",
                "meta": {
                    "profile": [
                        "https://www.netzwerk-universitaetsmedizin.de/fhir/StructureDefinition/symptoms-covid-19"
                    ]
                },
                "category": [
                    {
                        "coding": [
                            {
                                "code": "75325-1",
                                "display": "Symptom",
                                "system": "http://loinc.org"
                            }
                        ]
                    }
                ],
                "code": {
                    "coding": [
                        {
                            "code": "422400008",
                            "display": "Vomiting (disorder)",
                            "system": "http://snomed.info/sct"
                        }
                    ]
                },
                "recordedDate": "2020-11-17T10:51:11+01:00",
                "subject": {
                    "reference": "Patient/6c805ad2-1802-4b4c-ba1a-2da947f08551"
                },
                "verificationStatus": {
                    "coding": [
                        {
                            "code": "refuted",
                            "display": "Refuted",
                            "system": "http://terminology.hl7.org/CodeSystem/condition-ver-status"
                        },
                        {
                            "code": "410594000",
                            "display": "Definitely NOT present (qualifier value)",
                            "system": "http://snomed.info/sct"
                        }
                    ]
                },
                "resourceType": "Condition"
            }
        },
        {
            "request": {
                "method": "POST",
                "url": "Condition"
            },
            "resource": {
                "id": "a0aa9e62-f1c4-4fb4-9b73-467256c8adef",
                "meta": {
                    "profile": [
                        "https://www.netzwerk-universitaetsmedizin.de/fhir/StructureDefinition/symptoms-covid-19"
                    ]
                },
                "category": [
                    {
                        "coding": [
                            {
                                "code": "75325-1",
                                "display": "Symptom",
                                "system": "http://loinc.org"
                            }
                        ]
                    }
                ],
                "clinicalStatus": {
                    "coding": [
                        {
                            "code": "active",
                            "display": "Active",
                            "system": "http://terminology.hl7.org/CodeSystem/condition-clinical"
                        }
                    ]
                },
                "code": {
                    "coding": [
                        {
                            "code": "49727002",
                            "display": "Cough (finding)",
                            "system": "http://snomed.info/sct"
                        }
                    ]
                },
                "recordedDate": "2020-11-17T10:51:11+01:00",
                "severity": {
                    "coding": [
                        {
                            "code": "255604002",
                            "display": "Mild (qualifier value)",
                            "system": "http://snomed.info/sct"
                        }
                    ]
                },
                "subject": {
                    "reference": "Patient/6c805ad2-1802-4b4c-ba1a-2da947f08551"
                },
                "verificationStatus": {
                    "coding": [
                        {
                            "code": "confirmed",
                            "display": "Confirmed",
                            "system": "http://terminology.hl7.org/CodeSystem/condition-ver-status"
                        },
                        {
                            "code": "410605003",
                            "display": "Confirmed present (qualifier value)",
                            "system": "http://snomed.info/sct"
                        }
                    ]
                },
                "resourceType": "Condition"
            }
        },
        {
            "request": {
                "method": "POST",
                "url": "Condition"
            },
            "resource": {
                "id": "914d58ef-3439-4f9b-8f80-028123a9f521",
                "meta": {
                    "profile": [
                        "https://www.netzwerk-universitaetsmedizin.de/fhir/StructureDefinition/symptoms-covid-19"
                    ]
                },
                "category": [
                    {
                        "coding": [
                            {
                                "code": "75325-1",
                                "display": "Symptom",
                                "system": "http://loinc.org"
                            }
                        ]
                    }
                ],
                "clinicalStatus": {
                    "coding": [
                        {
                            "code": "active",
                            "display": "Active",
                            "system": "http://terminology.hl7.org/CodeSystem/condition-clinical"
                        }
                    ]
                },
                "code": {
                    "coding": [
                        {
                            "code": "267036007",
                            "display": "Dyspnea (finding)",
                            "system": "http://snomed.info/sct"
                        }
                    ]
                },
                "recordedDate": "2020-11-17T10:51:11+01:00",
                "severity": {
                    "coding": [
                        {
                            "code": "255604002",
                            "display": "Mild (qualifier value)",
                            "system": "http://snomed.info/sct"
                        }
                    ]
                },
                "subject": {
                    "reference": "Patient/6c805ad2-1802-4b4c-ba1a-2da947f08551"
                },
                "verificationStatus": {
                    "coding": [
                        {
                            "code": "confirmed",
                            "display": "Confirmed",
                            "system": "http://terminology.hl7.org/CodeSystem/condition-ver-status"
                        },
                        {
                            "code": "410605003",
                            "display": "Confirmed present (qualifier value)",
                            "system": "http://snomed.info/sct"
                        }
                    ]
                },
                "resourceType": "Condition"
            }
        },
        {
            "request": {
                "method": "POST",
                "url": "Condition"
            },
            "resource": {
                "id": "f519d3bd-e0f5-4b8a-a104-5c368fbbffd5",
                "meta": {
                    "profile": [
                        "https://www.netzwerk-universitaetsmedizin.de/fhir/StructureDefinition/symptoms-covid-19"
                    ]
                },
                "category": [
                    {
                        "coding": [
                            {
                                "code": "75325-1",
                                "display": "Symptom",
                                "system": "http://loinc.org"
                            }
                        ]
                    }
                ],
                "code": {
                    "coding": [
                        {
                            "code": "422587007",
                            "display": "Nausea (finding)",
                            "system": "http://snomed.info/sct"
                        }
                    ]
                },
                "recordedDate": "2020-11-17T10:51:11+01:00",
                "subject": {
                    "reference": "Patient/6c805ad2-1802-4b4c-ba1a-2da947f08551"
                },
                "verificationStatus": {
                    "coding": [
                        {
                            "code": "refuted",
                            "display": "Refuted",
                            "system": "http://terminology.hl7.org/CodeSystem/condition-ver-status"
                        },
                        {
                            "code": "410594000",
                            "display": "Definitely NOT present (qualifier value)",
                            "system": "http://snomed.info/sct"
                        }
                    ]
                },
                "resourceType": "Condition"
            }
        },
        {
            "request": {
                "method": "POST",
                "url": "Condition"
            },
            "resource": {
                "id": "aa92b3bd-e486-444a-86ff-5c96744441e7",
                "meta": {
                    "profile": [
                        "https://www.netzwerk-universitaetsmedizin.de/fhir/StructureDefinition/symptoms-covid-19"
                    ]
                },
                "category": [
                    {
                        "coding": [
                            {
                                "code": "75325-1",
                                "display": "Symptom",
                                "system": "http://loinc.org"
                            }
                        ]
                    }
                ],
                "clinicalStatus": {
                    "coding": [
                        {
                            "code": "active",
                            "display": "Active",
                            "system": "http://terminology.hl7.org/CodeSystem/condition-clinical"
                        }
                    ]
                },
                "code": {
                    "coding": [
                        {
                            "code": "426000000",
                            "display": "Fever greater than 100.4 Fahrenheit / 38\u00b0 Celsius (finding)",
                            "system": "http://snomed.info/sct"
                        }
                    ]
                },
                "recordedDate": "2020-11-17T10:51:11+01:00",
                "severity": {
                    "coding": [
                        {
                            "code": "255604002",
                            "display": "Mild (qualifier value)",
                            "system": "http://snomed.info/sct"
                        }
                    ]
                },
                "subject": {
                    "reference": "Patient/6c805ad2-1802-4b4c-ba1a-2da947f08551"
                },
                "verificationStatus": {
                    "coding": [
                        {
                            "code": "confirmed",
                            "display": "Confirmed",
                            "system": "http://terminology.hl7.org/CodeSystem/condition-ver-status"
                        },
                        {
                            "code": "410605003",
                            "display": "Confirmed present (qualifier value)",
                            "system": "http://snomed.info/sct"
                        }
                    ]
                },
                "resourceType": "Condition"
            }
        },
        {
            "request": {
                "method": "POST",
                "url": "Condition"
            },
            "resource": {
                "id": "ccea7f03-28ba-4b04-8315-9b47b4166700",
                "meta": {
                    "profile": [
                        "https://www.netzwerk-universitaetsmedizin.de/fhir/StructureDefinition/symptoms-covid-19"
                    ]
                },
                "category": [
                    {
                        "coding": [
                            {
                                "code": "75325-1",
                                "display": "Symptom",
                                "system": "http://loinc.org"
                            }
                        ]
                    }
                ],
                "clinicalStatus": {
                    "coding": [
                        {
                            "code": "active",
                            "display": "Active",
                            "system": "http://terminology.hl7.org/CodeSystem/condition-clinical"
                        }
                    ]
                },
                "code": {
                    "coding": [
                        {
                            "code": "25064002",
                            "display": "Headache (finding)",
                            "system": "http://snomed.info/sct"
                        }
                    ]
                },
                "recordedDate": "2020-11-17T10:51:11+01:00",
                "subject": {
                    "reference": "Patient/6c805ad2-1802-4b4c-ba1a-2da947f08551"
                },
                "verificationStatus": {
                    "coding": [
                        {
                            "code": "confirmed",
                            "display": "Confirmed",
                            "system": "http://terminology.hl7.org/CodeSystem/condition-ver-status"
                        },
                        {
                            "code": "410605003",
                            "display": "Confirmed present (qualifier value)",
                            "system": "http://snomed.info/sct"
                        }
                    ]
                },
                "resourceType": "Condition"
            }
        },
        {
            "request": {
                "method": "POST",
                "url": "Procedure"
            },
            "resource": {
                "id": "93073110-8bcb-4cef-bb2f-8795eed6e3d2",
                "meta": {
                    "profile": [
                        "https://www.netzwerk-universitaetsmedizin.de/fhir/StructureDefinition/dialysis"
                    ]
                },
                "category": {
                    "coding": [
                        {
                            "code": "277132007",
                            "display": "Therapeutic procedure (procedure)",
                            "system": "http://snomed.info/sct"
                        }
                    ]
                },
                "code": {
                    "coding": [
                        {
                            "code": "108241001",
                            "display": "Dialysis procedure (procedure)",
                            "system": "http://snomed.info/sct"
                        }
                    ],
                    "text": "Dialysis"
                },
                "performedDateTime": "2020-11-17T10:51:11+01:00",
                "status": "in-progress",
                "subject": {
                    "reference": "Patient/6c805ad2-1802-4b4c-ba1a-2da947f08551"
                },
                "resourceType": "Procedure"
            }
        },
        {
            "request": {
                "method": "POST",
                "url": "Procedure"
            },
            "resource": {
                "id": "5b7ecaf7-cacc-40b9-a529-cc7bc90ef8a3",
                "meta": {
                    "profile": [
                        "https://www.netzwerk-universitaetsmedizin.de/fhir/StructureDefinition/apheresis"
                    ]
                },
                "category": {
                    "coding": [
                        {
                            "code": "277132007",
                            "display": "Therapeutic procedure (procedure)",
                            "system": "http://snomed.info/sct"
                        }
                    ]
                },
                "code": {
                    "coding": [
                        {
                            "code": "127788007",
                            "display": "Apheresis (procedure)",
                            "system": "http://snomed.info/sct"
                        }
                    ],
                    "text": "Apheresis"
                },
                "performedDateTime": "2020-11-17T10:51:11+01:00",
                "status": "in-progress",
                "subject": {
                    "reference": "Patient/6c805ad2-1802-4b4c-ba1a-2da947f08551"
                },
                "resourceType": "Procedure"
            }
        },
        {
            "request": {
                "method": "POST",
                "url": "Procedure"
            },
            "resource": {
                "id": "62def81a-cda8-4418-bcce-6ca691f98d4a",
                "meta": {
                    "profile": [
                        "https://www.netzwerk-universitaetsmedizin.de/fhir/StructureDefinition/prone-position"
                    ]
                },
                "category": {
                    "coding": [
                        {
                            "code": "225287004",
                            "display": "Procedures relating to positioning and support (procedure)",
                            "system": "http://snomed.info/sct"
                        }
                    ]
                },
                "code": {
                    "coding": [
                        {
                            "code": "431182000",
                            "display": "Placing subject in prone position (procedure)",
                            "system": "http://snomed.info/sct"
                        }
                    ],
                    "text": "Prone position"
                },
                "performedDateTime": "2020-11-17T10:51:11+01:00",
                "status": "in-progress",
                "subject": {
                    "reference": "Patient/6c805ad2-1802-4b4c-ba1a-2da947f08551"
                },
                "resourceType": "Procedure"
            }
        },
        {
            "request": {
                "method": "POST",
                "url": "Procedure"
            },
            "resource": {
                "id": "f43f1dd1-d1df-4f0b-bcdb-0f83b166eed5",
                "meta": {
                    "profile": [
                        "https://www.netzwerk-universitaetsmedizin.de/fhir/StructureDefinition/extracorporeal-membrane-oxygenation"
                    ]
                },
                "category": {
                    "coding": [
                        {
                            "code": "277132007",
                            "display": "Therapeutic procedure (procedure)",
                            "system": "http://snomed.info/sct"
                        }
                    ]
                },
                "code": {
                    "coding": [
                        {
                            "code": "233573008",
                            "display": "Extracorporeal membrane oxygenation (procedure)",
                            "system": "http://snomed.info/sct"
                        }
                    ],
                    "text": "ECMO"
                },
                "performedDateTime": "2020-11-17T10:51:11+01:00",
                "status": "in-progress",
                "subject": {
                    "reference": "Patient/6c805ad2-1802-4b4c-ba1a-2da947f08551"
                },
                "resourceType": "Procedure"
            }
        },
        {
            "request": {
                "method": "PUT",
                "url": "Observation/ddc99d18-a693-4da4-805a-4198b91f820c"
            },
            "resource": {
                "id": "ddc99d18-a693-4da4-805a-4198b91f820c",
                "meta": {
                    "profile": [
                        "https://www.netzwerk-universitaetsmedizin.de/fhir/StructureDefinition/patient-in-icu"
                    ]
                },
                "category": [
                    {
                        "coding": [
                            {
                                "code": "survey",
                                "display": "Survey",
                                "system": "http://terminology.hl7.org/CodeSystem/observation-category"
                            }
                        ]
                    }
                ],
                "code": {
                    "coding": [
                        {
                            "code": "01",
                            "display": "Is the patient in the intensive care unit?",
                            "system": "https://www.netzwerk-universitaetsmedizin.de/fhir/CodeSystem/ecrf-parameter-codes"
                        }
                    ]
                },
                "effectiveDateTime": "2020-11-17T10:51:11+01:00",
                "status": "final",
                "subject": {
                    "reference": "Patient/6c805ad2-1802-4b4c-ba1a-2da947f08551"
                },
                "valueCodeableConcept": {
                    "coding": [
                        {
                            "code": "261665006",
                            "display": "Unknown (qualifier value)",
                            "system": "http://snomed.info/sct"
                        }
                    ]
                },
                "resourceType": "Observation"
            }
        },
        {
            "request": {
                "method": "POST",
                "url": "Procedure"
            },
            "resource": {
                "id": "fd7373e1-ab90-45c6-9122-a38d5edbd1e6",
                "meta": {
                    "profile": [
                        "https://www.netzwerk-universitaetsmedizin.de/fhir/StructureDefinition/respiratory-therapies"
                    ]
                },
                "category": {
                    "coding": [
                        {
                            "code": "277132007",
                            "display": "Therapeutic procedure (procedure)",
                            "system": "http://snomed.info/sct"
                        }
                    ]
                },
                "code": {
                    "coding": [
                        {
                            "code": "371907003",
                            "display": "Oxygen administration by nasal cannula (procedure)",
                            "system": "http://snomed.info/sct"
                        }
                    ],
                    "text": "Nasal High-Flow-Oxygen-Therapy"
                },
                "performedDateTime": "2020-11-17T10:51:11+01:00",
                "status": "in-progress",
                "subject": {
                    "reference": "Patient/6c805ad2-1802-4b4c-ba1a-2da947f08551"
                },
                "usedCode": [
                    {
                        "coding": [
                            {
                                "code": "426854004",
                                "display": "High flow oxygen nasal cannula (physical object)",
                                "system": "http://snomed.info/sct"
                            }
                        ]
                    }
                ],
                "resourceType": "Procedure"
            }
        },
        {
            "request": {
                "method": "PUT",
                "url": "Observation/c238d0cc-d97a-463c-8bf5-0f0e8053b99f"
            },
            "resource": {
                "id": "c238d0cc-d97a-463c-8bf5-0f0e8053b99f",
                "meta": {
                    "profile": [
                        "https://www.netzwerk-universitaetsmedizin.de/fhir/StructureDefinition/carbon-dioxide-partial-pressure"
                    ]
                },
                "category": [
                    {
                        "coding": [
                            {
                                "code": "26436-6",
                                "system": "http://loinc.org"
                            },
                            {
                                "code": "laboratory",
                                "system": "http://terminology.hl7.org/CodeSystem/observation-category"
                            },
                            {
                                "code": "18767-4",
                                "system": "http://loinc.org"
                            }
                        ]
                    }
                ],
                "code": {
                    "coding": [
                        {
                            "code": "2019-8",
                            "display": "Carbon dioxide [Partial pressure] in Arterial blood",
                            "system": "http://loinc.org"
                        }
                    ],
                    "text": "paCO2"
                },
                "effectiveDateTime": "2020-11-17T10:51:11+01:00",
                "identifier": [
                    {
                        "assigner": {
                            "reference": "Organization/Charit\u00e9"
                        },
                        "system": "https://www.charite.de/fhir/CodeSystem/lab-identifiers",
                        "type": {
                            "coding": [
                                {
                                    "code": "OBI",
                                    "system": "http://terminology.hl7.org/CodeSystem/v2-0203"
                                }
                            ]
                        },
                        "value": "2019-8_paCO2"
                    }
                ],
                "status": "final",
                "subject": {
                    "reference": "Patient/6c805ad2-1802-4b4c-ba1a-2da947f08551"
                },
                "valueQuantity": {
                    "code": "mm[Hg]",
                    "system": "http://unitsofmeasure.org",
                    "unit": "mmHg",
                    "value": 43
                },
                "resourceType": "Observation"
            }
        },
        {
            "request": {
                "method": "PUT",
                "url": "Observation/19fec2f6-76e8-4805-94b0-436d14a95169"
            },
            "resource": {
                "id": "19fec2f6-76e8-4805-94b0-436d14a95169",
                "meta": {
                    "profile": [
                        "https://www.netzwerk-universitaetsmedizin.de/fhir/StructureDefinition/oxygen-partial-pressure"
                    ]
                },
                "category": [
                    {
                        "coding": [
                            {
                                "code": "26436-6",
                                "system": "http://loinc.org"
                            },
                            {
                                "code": "laboratory",
                                "system": "http://terminology.hl7.org/CodeSystem/observation-category"
                            },
                            {
                                "code": "18767-4",
                                "system": "http://loinc.org"
                            }
                        ]
                    }
                ],
                "code": {
                    "coding": [
                        {
                            "code": "2703-7",
                            "display": "Oxygen [Partial pressure] in Arterial blood",
                            "system": "http://loinc.org"
                        }
                    ],
                    "text": "paO2"
                },
                "effectiveDateTime": "2020-11-17T10:51:11+01:00",
                "identifier": [
                    {
                        "assigner": {
                            "reference": "Organization/Charit\u00e9"
                        },
                        "system": "https://www.charite.de/fhir/CodeSystem/lab-identifiers",
                        "type": {
                            "coding": [
                                {
                                    "code": "OBI",
                                    "system": "http://terminology.hl7.org/CodeSystem/v2-0203"
                                }
                            ]
                        },
                        "value": "2703-7_paO2"
                    }
                ],
                "status": "final",
                "subject": {
                    "reference": "Patient/6c805ad2-1802-4b4c-ba1a-2da947f08551"
                },
                "valueQuantity": {
                    "code": "mm[Hg]",
                    "system": "http://unitsofmeasure.org",
                    "unit": "mmHg",
                    "value": 80
                },
                "resourceType": "Observation"
            }
        },
        {
            "request": {
                "method": "PUT",
                "url": "Observation/f79419df-7167-4ad4-8288-8e4ef72f7a77"
            },
            "resource": {
                "id": "f79419df-7167-4ad4-8288-8e4ef72f7a77",
                "meta": {
                    "profile": [
                        "https://www.netzwerk-universitaetsmedizin.de/fhir/StructureDefinition/inhaled-oxygen-concentration"
                    ]
                },
                "category": [
                    {
                        "coding": [
                            {
                                "code": "26436-6",
                                "system": "http://loinc.org"
                            },
                            {
                                "code": "laboratory",
                                "system": "http://terminology.hl7.org/CodeSystem/observation-category"
                            },
                            {
                                "code": "18767-4",
                                "system": "http://loinc.org"
                            }
                        ]
                    }
                ],
                "code": {
                    "coding": [
                        {
                            "code": "3150-0",
                            "display": "Inhaled oxygen concentration",
                            "system": "http://loinc.org"
                        }
                    ],
                    "text": "FiO2"
                },
                "effectiveDateTime": "2020-11-17T10:51:11+01:00",
                "identifier": [
                    {
                        "assigner": {
                            "reference": "Organization/Charit\u00e9"
                        },
                        "system": "https://www.charite.de/fhir/CodeSystem/lab-identifiers",
                        "type": {
                            "coding": [
                                {
                                    "code": "OBI",
                                    "system": "http://terminology.hl7.org/CodeSystem/v2-0203"
                                }
                            ]
                        },
                        "value": "3150-0_FiO2"
                    }
                ],
                "status": "final",
                "subject": {
                    "reference": "Patient/6c805ad2-1802-4b4c-ba1a-2da947f08551"
                },
                "valueQuantity": {
                    "code": "%",
                    "system": "http://unitsofmeasure.org",
                    "unit": "%",
                    "value": 39
                },
                "resourceType": "Observation"
            }
        },
        {
            "request": {
                "method": "PUT",
                "url": "Observation/452469c3-53a0-444f-87f0-35b731a8183c"
            },
            "resource": {
                "id": "452469c3-53a0-444f-87f0-35b731a8183c",
                "meta": {
                    "profile": [
                        "https://www.netzwerk-universitaetsmedizin.de/fhir/StructureDefinition/pH"
                    ]
                },
                "category": [
                    {
                        "coding": [
                            {
                                "code": "26436-6",
                                "system": "http://loinc.org"
                            },
                            {
                                "code": "laboratory",
                                "system": "http://terminology.hl7.org/CodeSystem/observation-category"
                            },
                            {
                                "code": "18767-4",
                                "system": "http://loinc.org"
                            }
                        ]
                    }
                ],
                "code": {
                    "coding": [
                        {
                            "code": "2744-1",
                            "display": "pH of Arterial blood",
                            "system": "http://loinc.org"
                        }
                    ],
                    "text": "pH"
                },
                "effectiveDateTime": "2020-11-17T10:51:11+01:00",
                "identifier": [
                    {
                        "assigner": {
                            "reference": "Organization/Charit\u00e9"
                        },
                        "system": "https://www.charite.de/fhir/CodeSystem/lab-identifiers",
                        "type": {
                            "coding": [
                                {
                                    "code": "OBI",
                                    "system": "http://terminology.hl7.org/CodeSystem/v2-0203"
                                }
                            ]
                        },
                        "value": "2744-1_pH"
                    }
                ],
                "status": "final",
                "subject": {
                    "reference": "Patient/6c805ad2-1802-4b4c-ba1a-2da947f08551"
                },
                "valueQuantity": {
                    "code": "[pH]",
                    "system": "http://unitsofmeasure.org",
                    "unit": "pH",
                    "value": 7.36
                },
                "resourceType": "Observation"
            }
        },
        {
            "request": {
                "method": "PUT",
                "url": "Observation/f85d6a88-5c56-4d44-9054-fc3ede2a90b0"
            },
            "resource": {
                "id": "f85d6a88-5c56-4d44-9054-fc3ede2a90b0",
                "meta": {
                    "profile": [
                        "https://www.netzwerk-universitaetsmedizin.de/fhir/StructureDefinition/oxygen-saturation"
                    ]
                },
                "category": [
                    {
                        "coding": [
                            {
                                "code": "vital-signs",
                                "system": "http://terminology.hl7.org/CodeSystem/observation-category"
                            }
                        ]
                    }
                ],
                "code": {
                    "coding": [
                        {
                            "code": "2708-6",
                            "display": "Oxygen saturation in Arterial blood",
                            "system": "http://loinc.org"
                        }
                    ],
                    "text": "Oxygen saturation"
                },
                "effectiveDateTime": "2020-11-17T10:51:11+01:00",
                "identifier": [
                    {
                        "assigner": {
                            "reference": "Organization/Charit\u00e9"
                        },
                        "system": "https://www.charite.de/fhir/CodeSystem/lab-identifiers",
                        "type": {
                            "coding": [
                                {
                                    "code": "OBI",
                                    "system": "http://terminology.hl7.org/CodeSystem/v2-0203"
                                }
                            ]
                        },
                        "value": "2708-6_OxygenSaturation"
                    }
                ],
                "status": "final",
                "subject": {
                    "reference": "Patient/6c805ad2-1802-4b4c-ba1a-2da947f08551"
                },
                "valueQuantity": {
                    "code": "%",
                    "system": "http://unitsofmeasure.org",
                    "unit": "%",
                    "value": 88
                },
                "resourceType": "Observation"
            }
        },
        {
            "request": {
                "method": "PUT",
                "url": "Observation/2b988039-ba2c-4606-b38a-dff7a8524cbb"
            },
            "resource": {
                "id": "2b988039-ba2c-4606-b38a-dff7a8524cbb",
                "meta": {
                    "profile": [
                        "https://www.netzwerk-universitaetsmedizin.de/fhir/StructureDefinition/blood-gas-panel"
                    ]
                },
                "category": [
                    {
                        "coding": [
                            {
                                "code": "26436-6",
                                "system": "http://loinc.org"
                            },
                            {
                                "code": "laboratory",
                                "system": "http://terminology.hl7.org/CodeSystem/observation-category"
                            },
                            {
                                "code": "18767-4",
                                "system": "http://loinc.org"
                            }
                        ]
                    }
                ],
                "code": {
                    "coding": [
                        {
                            "code": "24336-0",
                            "display": "Gas panel (BldA)",
                            "system": "http://loinc.org"
                        }
                    ],
                    "text": "Gas panel - Arterial blood"
                },
                "effectiveDateTime": "2020-11-17T10:51:11+01:00",
                "hasMember": [
                    {
                        "reference": "Observation/c238d0cc-d97a-463c-8bf5-0f0e8053b99f"
                    },
                    {
                        "reference": "Observation/19fec2f6-76e8-4805-94b0-436d14a95169"
                    },
                    {
                        "reference": "Observation/f79419df-7167-4ad4-8288-8e4ef72f7a77"
                    },
                    {
                        "reference": "Observation/452469c3-53a0-444f-87f0-35b731a8183c"
                    },
                    {
                        "reference": "Observation/f85d6a88-5c56-4d44-9054-fc3ede2a90b0"
                    }
                ],
                "identifier": [
                    {
                        "assigner": {
                            "reference": "Organization/Charit\u00e9"
                        },
                        "system": "https://www.charite.de/fhir/CodeSystem/lab-identifiers",
                        "type": {
                            "coding": [
                                {
                                    "code": "OBI",
                                    "system": "http://terminology.hl7.org/CodeSystem/v2-0203"
                                }
                            ]
                        },
                        "value": "24336-0_gasPanelBldA"
                    }
                ],
                "status": "final",
                "subject": {
                    "reference": "Patient/6c805ad2-1802-4b4c-ba1a-2da947f08551"
                },
                "resourceType": "Observation"
            }
        },
        {
            "request": {
                "method": "PUT",
                "url": "Observation/2257347f-e5d2-4e5d-9b42-0fa82fabe7a7"
            },
            "resource": {
                "id": "2257347f-e5d2-4e5d-9b42-0fa82fabe7a7",
                "meta": {
                    "profile": [
                        "https://www.netzwerk-universitaetsmedizin.de/fhir/StructureDefinition/sofa-score"
                    ]
                },
                "category": [
                    {
                        "coding": [
                            {
                                "code": "survey",
                                "system": "http://terminology.hl7.org/CodeSystem/observation-category"
                            }
                        ]
                    }
                ],
                "code": {
                    "coding": [
                        {
                            "code": "06",
                            "display": "SOFA-Score",
                            "system": "https://www.netzwerk-universitaetsmedizin.de/fhir/CodeSystem/ecrf-parameter-codes"
                        }
                    ],
                    "text": "Sepsis-related organ failure assessment score"
                },
                "component": [
                    {
                        "code": {
                            "coding": [
                                {
                                    "code": "resp",
                                    "display": "Respiratory system",
                                    "system": "https://www.netzwerk-universitaetsmedizin.de/fhir/CodeSystem/sofa-score"
                                }
                            ],
                            "text": "SOFA Respiratory system scoring category"
                        },
                        "valueCodeableConcept": {
                            "coding": [
                                {
                                    "code": "resp1",
                                    "display": "Respiratory system SOFA score 1",
                                    "system": "https://www.netzwerk-universitaetsmedizin.de/fhir/CodeSystem/sofa-score"
                                }
                            ],
                            "text": "PaO2/FiO2 [mmHg (kPa)] < 400 (53.3)"
                        }
                    },
                    {
                        "code": {
                            "coding": [
                                {
                                    "code": "ns",
                                    "display": "Nervous system",
                                    "system": "https://www.netzwerk-universitaetsmedizin.de/fhir/CodeSystem/sofa-score"
                                }
                            ],
                            "text": "SOFA Nervous system scoring category"
                        },
                        "valueCodeableConcept": {
                            "coding": [
                                {
                                    "code": "ns0",
                                    "display": "Nervous system SOFA score 0",
                                    "system": "https://www.netzwerk-universitaetsmedizin.de/fhir/CodeSystem/sofa-score"
                                }
                            ],
                            "text": "Glasgow Coma Scale (GCS) 15"
                        }
                    },
                    {
                        "code": {
                            "coding": [
                                {
                                    "code": "cvs",
                                    "display": "Cardiovascular system",
                                    "system": "https://www.netzwerk-universitaetsmedizin.de/fhir/CodeSystem/sofa-score"
                                }
                            ],
                            "text": "SOFA Cardiovascular system scoring category"
                        },
                        "valueCodeableConcept": {
                            "coding": [
                                {
                                    "code": "cvs3",
                                    "display": "Cardiovascular system SOFA score 3",
                                    "system": "https://www.netzwerk-universitaetsmedizin.de/fhir/CodeSystem/sofa-score"
                                }
                            ],
                            "text": "Administration of dopamine > 5 ug/kg/min OR epinephrine \u2264 0.1 ug/kg/min OR norepinephrine \u2264 0.1 ug/kg/min"
                        }
                    },
                    {
                        "code": {
                            "coding": [
                                {
                                    "code": "liv",
                                    "display": "Liver",
                                    "system": "https://www.netzwerk-universitaetsmedizin.de/fhir/CodeSystem/sofa-score"
                                }
                            ],
                            "text": "SOFA Liver scoring category"
                        },
                        "valueCodeableConcept": {
                            "coding": [
                                {
                                    "code": "liv1",
                                    "display": "Liver SOFA score 1",
                                    "system": "https://www.netzwerk-universitaetsmedizin.de/fhir/CodeSystem/sofa-score"
                                }
                            ],
                            "text": "Bilirubin (mg/dl) [umol/L] 1.2-1.9 [20-32]"
                        }
                    },
                    {
                        "code": {
                            "coding": [
                                {
                                    "code": "coa",
                                    "display": "Coagulation",
                                    "system": "https://www.netzwerk-universitaetsmedizin.de/fhir/CodeSystem/sofa-score"
                                }
                            ],
                            "text": "SOFA Coagulation scoring category"
                        },
                        "valueCodeableConcept": {
                            "coding": [
                                {
                                    "code": "coa0",
                                    "display": "Coagulation SOFA score 0",
                                    "system": "https://www.netzwerk-universitaetsmedizin.de/fhir/CodeSystem/sofa-score"
                                }
                            ],
                            "text": "Platelets\u00d710^3/ul ? 150"
                        }
                    },
                    {
                        "code": {
                            "coding": [
                                {
                                    "code": "kid",
                                    "display": "Kidneys",
                                    "system": "https://www.netzwerk-universitaetsmedizin.de/fhir/CodeSystem/sofa-score"
                                }
                            ],
                            "text": "SOFA Kidneys scoring category"
                        },
                        "valueCodeableConcept": {
                            "coding": [
                                {
                                    "code": "kid4",
                                    "display": "Kidneys SOFA score 4",
                                    "system": "https://www.netzwerk-universitaetsmedizin.de/fhir/CodeSystem/sofa-score"
                                }
                            ],
                            "text": "Creatinine (mg/dl) [umol/L] (or urine output) > 5.0 [> 440] (or < 200 ml/d)"
                        }
                    }
                ],
                "effectiveDateTime": "2020-11-17T10:51:11+01:00",
                "identifier": [
                    {
                        "assigner": {
                            "reference": "Organization/Charit\u00e9"
                        },
                        "system": "https://www.charite.de/fhir/CodeSystem/observation-identifiers",
                        "type": {
                            "coding": [
                                {
                                    "code": "OBI",
                                    "system": "http://terminology.hl7.org/CodeSystem/v2-0203"
                                }
                            ]
                        },
                        "value": "06_SOFA-Score"
                    }
                ],
                "status": "final",
                "subject": {
                    "reference": "Patient/6c805ad2-1802-4b4c-ba1a-2da947f08551"
                },
                "resourceType": "Observation"
            }
        },
        {
            "request": {
                "method": "PUT",
                "url": "Observation/cf3b3776-2a2e-4a3e-8a36-aa37366dc905"
            },
            "resource": {
                "id": "cf3b3776-2a2e-4a3e-8a36-aa37366dc905",
                "meta": {
                    "profile": [
                        "https://www.netzwerk-universitaetsmedizin.de/fhir/StructureDefinition/heart-rate"
                    ]
                },
                "category": [
                    {
                        "coding": [
                            {
                                "code": "vital-signs",
                                "system": "http://terminology.hl7.org/CodeSystem/observation-category"
                            }
                        ]
                    }
                ],
                "code": {
                    "coding": [
                        {
                            "code": "8867-4",
                            "display": "Heart rate",
                            "system": "http://loinc.org"
                        },
                        {
                            "code": "364075005",
                            "display": "Heart rate (observable entity)",
                            "system": "http://snomed.info/sct"
                        }
                    ],
                    "text": "Heart rate"
                },
                "effectiveDateTime": "2020-11-17T10:51:11+01:00",
                "identifier": [
                    {
                        "assigner": {
                            "reference": "Organization/Charit\u00e9"
                        },
                        "system": "https://www.charite.de/fhir/CodeSystem/observation-identifiers",
                        "type": {
                            "coding": [
                                {
                                    "code": "OBI",
                                    "system": "http://terminology.hl7.org/CodeSystem/v2-0203"
                                }
                            ]
                        },
                        "value": "8867-4_HeartRate"
                    }
                ],
                "status": "final",
                "subject": {
                    "reference": "Patient/6c805ad2-1802-4b4c-ba1a-2da947f08551"
                },
                "valueQuantity": {
                    "code": "/min",
                    "system": "http://unitsofmeasure.org",
                    "unit": "per minute",
                    "value": 90
                },
                "resourceType": "Observation"
            }
        },
        {
            "request": {
                "method": "PUT",
                "url": "Observation/047de19b-9ec7-43c5-bd15-90f99e6c397b"
            },
            "resource": {
                "id": "047de19b-9ec7-43c5-bd15-90f99e6c397b",
                "meta": {
                    "profile": [
                        "https://www.netzwerk-universitaetsmedizin.de/fhir/StructureDefinition/respiratory-rate"
                    ]
                },
                "category": [
                    {
                        "coding": [
                            {
                                "code": "vital-signs",
                                "system": "http://terminology.hl7.org/CodeSystem/observation-category"
                            }
                        ]
                    }
                ],
                "code": {
                    "coding": [
                        {
                            "code": "9279-1",
                            "display": "Respiratory rate",
                            "system": "http://loinc.org"
                        },
                        {
                            "code": "86290005",
                            "display": "Respiratory rate (observable entity)",
                            "system": "http://snomed.info/sct"
                        }
                    ],
                    "text": "Respiratory rate"
                },
                "effectiveDateTime": "2020-11-17T10:51:11+01:00",
                "identifier": [
                    {
                        "assigner": {
                            "reference": "Organization/Charit\u00e9"
                        },
                        "system": "https://www.charite.de/fhir/CodeSystem/observation-identifiers",
                        "type": {
                            "coding": [
                                {
                                    "code": "OBI",
                                    "system": "http://terminology.hl7.org/CodeSystem/v2-0203"
                                }
                            ]
                        },
                        "value": "9279-1_RespiratoryRate"
                    }
                ],
                "status": "final",
                "subject": {
                    "reference": "Patient/6c805ad2-1802-4b4c-ba1a-2da947f08551"
                },
                "valueQuantity": {
                    "code": "/min",
                    "system": "http://unitsofmeasure.org",
                    "unit": "per minute",
                    "value": 43
                },
                "resourceType": "Observation"
            }
        },
        {
            "request": {
                "method": "PUT",
                "url": "Observation/1a6c40ec-5be3-4675-9a96-0f720a7df9a6"
            },
            "resource": {
                "id": "1a6c40ec-5be3-4675-9a96-0f720a7df9a6",
                "meta": {
                    "profile": [
                        "https://www.netzwerk-universitaetsmedizin.de/fhir/StructureDefinition/body-temperature"
                    ]
                },
                "category": [
                    {
                        "coding": [
                            {
                                "code": "vital-signs",
                                "system": "http://terminology.hl7.org/CodeSystem/observation-category"
                            }
                        ]
                    }
                ],
                "code": {
                    "coding": [
                        {
                            "code": "8310-5",
                            "display": "Body temperature",
                            "system": "http://loinc.org"
                        },
                        {
                            "code": "386725007",
                            "display": "Body temperature (observable entity)",
                            "system": "http://snomed.info/sct"
                        }
                    ],
                    "text": "Body temperature"
                },
                "effectiveDateTime": "2020-11-17T10:51:11+01:00",
                "identifier": [
                    {
                        "assigner": {
                            "reference": "Organization/Charit\u00e9"
                        },
                        "system": "https://www.charite.de/fhir/CodeSystem/observation-identifiers",
                        "type": {
                            "coding": [
                                {
                                    "code": "OBI",
                                    "system": "http://terminology.hl7.org/CodeSystem/v2-0203"
                                }
                            ]
                        },
                        "value": "8310-5_BodyTemperature"
                    }
                ],
                "status": "final",
                "subject": {
                    "reference": "Patient/6c805ad2-1802-4b4c-ba1a-2da947f08551"
                },
                "valueQuantity": {
                    "code": "Cel",
                    "system": "http://unitsofmeasure.org",
                    "unit": "\u00b0C",
                    "value": 36.64
                },
                "resourceType": "Observation"
            }
        }
    ],
    "timestamp": "2020-11-17T10:51:11+01:00",
    "type": "transaction",
    "resourceType": "Bundle"
}
